Data from 0p01mbtmapaq_discharge_nitrogen_Absorbance_16-11-23-764.txt Node
Date: Wed Nov 02 16:11:23 EDT 2022
User: Kiana
Spectrometer: FLMS00943
Trigger mode: 0
Integration Time (sec): 1.000000E-1
Scans to average: 1
Electric dark correction enabled: true
Nonlinearity correction enabled: false
Boxcar width: 0
XAxis mode: Wavelengths
Number of Pixels in Spectrum: 2048
>>>>>Begin Spectral Data<<<<<
179.651	-0
180.037	-0
180.424	-0
180.81	-0
181.197	-0.27
181.583	-0
181.97	-0
182.356	0.01
182.743	0.21
183.129	0.45
183.515	0.26
183.901	-0
184.288	-0
184.674	0.03
185.06	-0
185.446	-0
185.832	-0.34
186.218	0.03
186.604	-0
186.99	-0
187.376	0.13
187.762	-0.37
188.148	-0.52
188.534	0.31
188.92	0.23
189.305	0.18
189.691	0.25
190.077	0.29
190.463	0.16
190.848	0.33
191.234	0.22
191.619	0.29
192.005	0.17
192.391	0.32
192.776	0.16
193.161	0.2
193.547	0.25
193.932	0.28
194.318	0.3
194.703	0.3
195.088	0.23
195.473	0.21
195.859	0.25
196.244	0.29
196.629	0.26
197.014	0.29
197.399	0.36
197.784	0.34
198.169	0.37
198.554	0.4
198.939	0.26
199.324	0.23
199.709	0.28
200.094	0.27
200.478	0.38
200.863	0.29
201.248	0.42
201.633	0.37
202.017	0.36
202.402	0.35
202.787	0.32
203.171	0.35
203.556	0.47
203.94	0.38
204.325	0.42
204.709	0.44
205.093	0.44
205.478	0.45
205.862	0.43
206.246	0.52
206.631	0.51
207.015	0.46
207.399	0.48
207.783	0.57
208.167	0.56
208.551	0.6
208.935	0.47
209.319	0.55
209.703	0.54
210.087	0.53
210.471	0.49
210.855	0.6
211.239	0.55
211.623	0.64
212.007	0.52
212.39	0.63
212.774	0.71
213.158	0.67
213.541	0.58
213.925	0.65
214.309	0.64
214.692	0.63
215.076	0.73
215.459	0.63
215.842	0.68
216.226	0.65
216.609	0.81
216.993	0.81
217.376	0.88
217.759	0.84
218.142	0.97
218.525	0.9
218.909	1.01
219.292	1.06
219.675	1.1
220.058	1.16
220.441	1.19
220.824	1.16
221.207	1.22
221.59	1.23
221.973	1.22
222.355	1.24
222.738	1.24
223.121	1.26
223.504	1.25
223.886	1.26
224.269	1.23
224.652	1.24
225.034	1.24
225.417	1.23
225.799	1.25
226.182	1.23
226.564	1.23
226.947	1.19
227.329	1.18
227.711	1.18
228.094	1.16
228.476	1.13
228.858	1.12
229.24	1.11
229.623	1.09
230.005	1.07
230.387	1.06
230.769	1.04
231.151	1.02
231.533	1.01
231.915	1
232.297	1
232.679	0.98
233.061	0.98
233.442	0.96
233.824	0.96
234.206	0.95
234.588	0.95
234.969	0.93
235.351	0.94
235.733	0.94
236.114	0.95
236.496	0.94
236.877	0.94
237.259	0.95
237.64	0.95
238.022	0.95
238.403	0.96
238.784	0.99
239.165	0.98
239.547	1.01
239.928	1.01
240.309	1.02
240.69	1.03
241.071	1.03
241.452	1.05
241.834	1.07
242.215	1.08
242.595	1.08
242.976	1.11
243.357	1.14
243.738	1.13
244.119	1.16
244.5	1.18
244.881	1.19
245.261	1.2
245.642	1.2
246.023	1.23
246.403	1.23
246.784	1.25
247.164	1.26
247.545	1.29
247.925	1.32
248.306	1.3
248.686	1.31
249.067	1.35
249.447	1.35
249.827	1.38
250.207	1.42
250.588	1.4
250.968	1.42
251.348	1.42
251.728	1.45
252.108	1.47
252.488	1.45
252.868	1.48
253.248	1.48
253.628	1.52
254.008	1.52
254.388	1.54
254.768	1.56
255.147	1.5
255.527	1.55
255.907	1.52
256.287	1.51
256.666	1.53
257.046	1.5
257.425	1.51
257.805	1.52
258.184	1.5
258.564	1.48
258.943	1.5
259.323	1.47
259.702	1.46
260.081	1.44
260.461	1.46
260.84	1.4
261.219	1.42
261.598	1.39
261.977	1.37
262.356	1.37
262.736	1.34
263.115	1.32
263.494	1.33
263.873	1.3
264.251	1.29
264.63	1.26
265.009	1.24
265.388	1.22
265.767	1.18
266.145	1.18
266.524	1.16
266.903	1.13
267.281	1.11
267.66	1.07
268.039	1.05
268.417	1.02
268.796	1
269.174	0.97
269.552	0.94
269.931	0.92
270.309	0.86
270.687	0.84
271.066	0.79
271.444	0.77
271.822	0.75
272.2	0.72
272.578	0.68
272.956	0.66
273.334	0.62
273.712	0.59
274.09	0.57
274.468	0.54
274.846	0.5
275.224	0.47
275.602	0.45
275.98	0.42
276.357	0.4
276.735	0.37
277.113	0.36
277.49	0.33
277.868	0.32
278.246	0.3
278.623	0.29
279.001	0.26
279.378	0.25
279.756	0.23
280.133	0.22
280.51	0.2
280.888	0.17
281.265	0.17
281.642	0.14
282.019	0.14
282.396	0.12
282.773	0.11
283.151	0.1
283.528	0.08
283.905	0.08
284.282	0.07
284.659	0.06
285.035	0.06
285.412	0.06
285.789	0.05
286.166	0.05
286.543	0.05
286.919	0.04
287.296	0.04
287.673	0.04
288.049	0.05
288.426	0.05
288.802	0.04
289.179	0.05
289.555	0.04
289.932	0.05
290.308	0.04
290.684	0.04
291.061	0.03
291.437	0.04
291.813	0.03
292.189	0.03
292.565	0.03
292.942	0.02
293.318	0.02
293.694	0.02
294.07	0.02
294.446	0.02
294.822	0.02
295.197	0.02
295.573	0.02
295.949	0.02
296.325	0.02
296.701	0.02
297.076	0.02
297.452	0.02
297.828	0.02
298.203	0.02
298.579	0.02
298.954	0.02
299.33	0.02
299.705	0.03
300.081	0.03
300.456	0.03
300.831	0.03
301.206	0.03
301.582	0.03
301.957	0.03
302.332	0.04
302.707	0.03
303.082	0.04
303.457	0.04
303.832	0.04
304.207	0.03
304.582	0.03
304.957	0.03
305.332	0.03
305.707	0.03
306.082	0.03
306.456	0.03
306.831	0.03
307.206	0.03
307.58	0.03
307.955	0.03
308.33	0.03
308.704	0.03
309.079	0.04
309.453	0.03
309.828	0.03
310.202	0.03
310.576	0.03
310.951	0.03
311.325	0.03
311.699	0.04
312.073	0.03
312.447	0.03
312.821	0.03
313.196	0.03
313.57	0.03
313.944	0.03
314.317	0.03
314.691	0.03
315.065	0.03
315.439	0.03
315.813	0.03
316.187	0.03
316.56	0.03
316.934	0.03
317.308	0.03
317.681	0.03
318.055	0.03
318.428	0.03
318.802	0.03
319.175	0.03
319.549	0.03
319.922	0.03
320.295	0.03
320.669	0.03
321.042	0.03
321.415	0.03
321.788	0.03
322.162	0.04
322.535	0.04
322.908	0.04
323.281	0.04
323.654	0.04
324.027	0.04
324.4	0.04
324.773	0.05
325.145	0.04
325.518	0.05
325.891	0.04
326.264	0.05
326.636	0.05
327.009	0.04
327.382	0.05
327.754	0.04
328.127	0.04
328.499	0.03
328.872	0.03
329.244	0.04
329.616	0.04
329.989	0.04
330.361	0.03
330.733	0.04
331.106	0.04
331.478	0.04
331.85	0.05
332.222	0.05
332.594	0.04
332.966	0.04
333.338	0.05
333.71	0.05
334.082	0.05
334.454	0.05
334.826	0.05
335.197	0.05
335.569	0.05
335.941	0.05
336.312	0.05
336.684	0.05
337.056	0.05
337.427	0.05
337.799	0.05
338.17	0.06
338.542	0.05
338.913	0.06
339.284	0.06
339.656	0.06
340.027	0.06
340.398	0.07
340.769	0.07
341.141	0.07
341.512	0.07
341.883	0.07
342.254	0.07
342.625	0.08
342.996	0.08
343.367	0.08
343.738	0.08
344.108	0.09
344.479	0.08
344.85	0.09
345.221	0.09
345.591	0.09
345.962	0.09
346.333	0.1
346.703	0.1
347.074	0.1
347.444	0.09
347.815	0.1
348.185	0.11
348.556	0.1
348.926	0.11
349.296	0.12
349.666	0.12
350.037	0.12
350.407	0.12
350.777	0.12
351.147	0.12
351.517	0.13
351.887	0.13
352.257	0.14
352.627	0.14
352.997	0.14
353.367	0.14
353.737	0.15
354.106	0.14
354.476	0.14
354.846	0.14
355.216	0.14
355.585	0.15
355.955	0.15
356.324	0.16
356.694	0.16
357.063	0.16
357.433	0.16
357.802	0.17
358.171	0.17
358.541	0.17
358.91	0.17
359.279	0.17
359.648	0.18
360.017	0.18
360.387	0.19
360.756	0.19
361.125	0.19
361.494	0.2
361.863	0.2
362.231	0.2
362.6	0.21
362.969	0.21
363.338	0.22
363.707	0.22
364.075	0.23
364.444	0.24
364.813	0.23
365.181	0.24
365.55	0.24
365.918	0.25
366.287	0.25
366.655	0.26
367.024	0.25
367.392	0.26
367.76	0.27
368.128	0.27
368.497	0.28
368.865	0.28
369.233	0.29
369.601	0.29
369.969	0.29
370.337	0.3
370.705	0.3
371.073	0.31
371.441	0.31
371.809	0.31
372.177	0.32
372.544	0.31
372.912	0.32
373.28	0.32
373.647	0.33
374.015	0.33
374.383	0.33
374.75	0.33
375.118	0.34
375.485	0.34
375.853	0.34
376.22	0.36
376.587	0.35
376.955	0.36
377.322	0.36
377.689	0.37
378.056	0.37
378.423	0.37
378.79	0.38
379.157	0.38
379.524	0.38
379.891	0.39
380.258	0.4
380.625	0.39
380.992	0.4
381.359	0.41
381.726	0.43
382.092	0.43
382.459	0.43
382.826	0.43
383.192	0.44
383.559	0.46
383.925	0.46
384.292	0.45
384.658	0.46
385.025	0.46
385.391	0.48
385.757	0.47
386.123	0.49
386.49	0.49
386.856	0.49
387.222	0.51
387.588	0.5
387.954	0.5
388.32	0.51
388.686	0.49
389.052	0.51
389.418	0.5
389.784	0.5
390.15	0.52
390.515	0.52
390.881	0.53
391.247	0.53
391.613	0.53
391.978	0.53
392.344	0.53
392.709	0.51
393.075	0.52
393.44	0.52
393.806	0.53
394.171	0.52
394.536	0.52
394.902	0.52
395.267	0.52
395.632	0.52
395.997	0.51
396.362	0.52
396.727	0.53
397.092	0.53
397.457	0.52
397.822	0.52
398.187	0.52
398.552	0.52
398.917	0.51
399.282	0.52
399.646	0.51
400.011	0.51
400.376	0.51
400.74	0.51
401.105	0.52
401.47	0.51
401.834	0.51
402.199	0.52
402.563	0.53
402.927	0.52
403.292	0.51
403.656	0.53
404.02	0.54
404.384	0.54
404.749	0.53
405.113	0.53
405.477	0.53
405.841	0.54
406.205	0.53
406.569	0.53
406.933	0.54
407.296	0.55
407.66	0.54
408.024	0.54
408.388	0.54
408.752	0.54
409.115	0.54
409.479	0.54
409.842	0.54
410.206	0.54
410.569	0.53
410.933	0.52
411.296	0.53
411.66	0.52
412.023	0.52
412.386	0.51
412.749	0.5
413.113	0.51
413.476	0.51
413.839	0.5
414.202	0.49
414.565	0.49
414.928	0.49
415.291	0.48
415.654	0.47
416.017	0.47
416.38	0.46
416.742	0.45
417.105	0.44
417.468	0.45
417.83	0.43
418.193	0.44
418.556	0.42
418.918	0.43
419.281	0.41
419.643	0.43
420.005	0.42
420.368	0.41
420.73	0.41
421.092	0.39
421.455	0.38
421.817	0.38
422.179	0.36
422.541	0.38
422.903	0.37
423.265	0.36
423.627	0.36
423.989	0.35
424.351	0.35
424.713	0.34
425.075	0.34
425.436	0.34
425.798	0.33
426.16	0.34
426.521	0.33
426.883	0.34
427.245	0.33
427.606	0.32
427.967	0.33
428.329	0.33
428.69	0.33
429.052	0.32
429.413	0.32
429.774	0.31
430.135	0.3
430.497	0.3
430.858	0.3
431.219	0.3
431.58	0.29
431.941	0.29
432.302	0.29
432.663	0.3
433.024	0.31
433.384	0.27
433.745	0.28
434.106	0.28
434.467	0.28
434.827	0.28
435.188	0.28
435.548	0.28
435.909	0.27
436.269	0.27
436.63	0.27
436.99	0.28
437.351	0.28
437.711	0.27
438.071	0.26
438.431	0.26
438.792	0.25
439.152	0.26
439.512	0.25
439.872	0.26
440.232	0.26
440.592	0.26
440.952	0.25
441.312	0.24
441.671	0.25
442.031	0.25
442.391	0.24
442.751	0.25
443.11	0.24
443.47	0.24
443.83	0.24
444.189	0.24
444.549	0.23
444.908	0.24
445.267	0.23
445.627	0.23
445.986	0.23
446.345	0.22
446.705	0.22
447.064	0.22
447.423	0.22
447.782	0.22
448.141	0.21
448.5	0.22
448.859	0.21
449.218	0.21
449.577	0.21
449.936	0.2
450.295	0.2
450.653	0.2
451.012	0.2
451.371	0.2
451.729	0.2
452.088	0.2
452.447	0.2
452.805	0.2
453.163	0.19
453.522	0.19
453.88	0.19
454.239	0.19
454.597	0.18
454.955	0.18
455.313	0.19
455.671	0.18
456.029	0.18
456.388	0.18
456.746	0.18
457.104	0.18
457.461	0.17
457.819	0.17
458.177	0.17
458.535	0.17
458.893	0.16
459.25	0.16
459.608	0.16
459.966	0.16
460.323	0.16
460.681	0.16
461.038	0.16
461.396	0.15
461.753	0.15
462.111	0.15
462.468	0.15
462.825	0.16
463.182	0.15
463.54	0.15
463.897	0.14
464.254	0.15
464.611	0.14
464.968	0.14
465.325	0.14
465.682	0.14
466.039	0.14
466.395	0.14
466.752	0.14
467.109	0.14
467.466	0.14
467.822	0.14
468.179	0.13
468.535	0.13
468.892	0.13
469.248	0.14
469.605	0.13
469.961	0.13
470.318	0.13
470.674	0.13
471.03	0.13
471.386	0.13
471.743	0.12
472.099	0.13
472.455	0.13
472.811	0.12
473.167	0.12
473.523	0.12
473.879	0.13
474.235	0.13
474.59	0.13
474.946	0.12
475.302	0.12
475.657	0.12
476.013	0.12
476.369	0.11
476.724	0.11
477.08	0.11
477.435	0.11
477.791	0.11
478.146	0.11
478.501	0.1
478.857	0.11
479.212	0.1
479.567	0.09
479.922	0.1
480.277	0.09
480.632	0.08
480.987	0.08
481.342	0.08
481.697	0.07
482.052	0.08
482.407	0.07
482.762	0.07
483.116	0.07
483.471	0.06
483.826	0.07
484.18	0.07
484.535	0.06
484.89	0.06
485.244	0.06
485.598	0.06
485.953	0.06
486.307	0.06
486.661	0.06
487.016	0.05
487.37	0.06
487.724	0.05
488.078	0.06
488.432	0.05
488.786	0.05
489.14	0.05
489.494	0.05
489.848	0.05
490.202	0.05
490.556	0.05
490.91	0.05
491.263	0.05
491.617	0.05
491.971	0.05
492.324	0.05
492.678	0.05
493.031	0.05
493.385	0.05
493.738	0.05
494.091	0.05
494.445	0.05
494.798	0.05
495.151	0.05
495.504	0.05
495.857	0.05
496.21	0.05
496.564	0.05
496.916	0.05
497.269	0.05
497.622	0.05
497.975	0.05
498.328	0.05
498.681	0.05
499.033	0.05
499.386	0.05
499.739	0.05
500.091	0.05
500.444	0.05
500.796	0.06
501.149	0.05
501.501	0.05
501.854	0.05
502.206	0.05
502.558	0.05
502.91	0.05
503.263	0.06
503.615	0.05
503.967	0.05
504.319	0.05
504.671	0.05
505.023	0.05
505.375	0.05
505.726	0.05
506.078	0.05
506.43	0.05
506.782	0.05
507.133	0.05
507.485	0.05
507.837	0.05
508.188	0.05
508.54	0.05
508.891	0.05
509.243	0.05
509.594	0.05
509.945	0.05
510.296	0.05
510.648	0.05
510.999	0.05
511.35	0.05
511.701	0.05
512.052	0.05
512.403	0.05
512.754	0.04
513.105	0.05
513.456	0.04
513.807	0.04
514.157	0.05
514.508	0.04
514.859	0.04
515.209	0.04
515.56	0.04
515.91	0.04
516.261	0.04
516.611	0.04
516.962	0.03
517.312	0.03
517.662	0.03
518.013	0.03
518.363	0.03
518.713	0.03
519.063	0.03
519.413	0.02
519.763	0.03
520.113	0.02
520.463	0.02
520.813	0.02
521.163	0.02
521.512	0.02
521.862	0.02
522.212	0.03
522.562	0.02
522.911	0.02
523.261	0.02
523.61	0.02
523.96	0.02
524.309	0.02
524.658	0.02
525.008	0.02
525.357	0.02
525.706	0.02
526.056	0.02
526.405	0.02
526.754	0.02
527.103	0.02
527.452	0.01
527.801	0.02
528.15	0.01
528.499	0.01
528.847	0.02
529.196	0.01
529.545	0.02
529.893	0.02
530.242	0.01
530.591	0.02
530.939	0.02
531.288	0.02
531.636	0.02
531.985	0.02
532.333	0.02
532.681	0.02
533.029	0.01
533.378	0.02
533.726	0.02
534.074	0.01
534.422	0.02
534.77	0.02
535.118	0.01
535.466	0.01
535.814	0.01
536.162	0.02
536.509	0.01
536.857	0.01
537.205	0.01
537.552	0.02
537.9	0.01
538.248	0.01
538.595	0.01
538.943	0.01
539.29	0.01
539.637	0.01
539.985	0.01
540.332	0.01
540.679	0.01
541.026	0.01
541.373	0.01
541.721	0.01
542.068	0.01
542.415	0.01
542.762	0.01
543.108	0
543.455	0.01
543.802	0.01
544.149	0.01
544.496	0
544.842	0.01
545.189	0
545.535	0.01
545.882	0.02
546.228	0.02
546.575	0.01
546.921	0.01
547.267	0.01
547.614	0.01
547.96	0.01
548.306	0.01
548.652	0.01
548.998	0.01
549.344	0.01
549.69	0.01
550.036	0.01
550.382	0.01
550.728	0.02
551.074	0.02
551.42	0.02
551.765	0.02
552.111	0.01
552.457	0.02
552.802	0.02
553.148	0.02
553.493	0.02
553.839	0.01
554.184	0.01
554.529	0.02
554.875	0.02
555.22	0.01
555.565	0.01
555.91	0.01
556.255	0.01
556.6	0.01
556.945	0
557.29	0.01
557.635	0
557.98	0.01
558.325	0.01
558.67	0
559.014	0
559.359	0.01
559.704	0.01
560.048	-0
560.393	0
560.737	0.01
561.082	0.01
561.426	0.01
561.77	0
562.115	0.01
562.459	0.01
562.803	0.01
563.147	0.02
563.491	0.01
563.835	0.01
564.179	0.01
564.523	0.01
564.867	0.01
565.211	0.01
565.555	0.01
565.899	0.01
566.242	0
566.586	0.01
566.93	0.02
567.273	0.01
567.617	0.01
567.96	0.01
568.304	0.01
568.647	0.01
568.99	0.01
569.334	0.01
569.677	0.01
570.02	0.01
570.363	0.02
570.706	0.01
571.049	0.02
571.392	0.02
571.735	0.02
572.078	0.02
572.421	0.02
572.764	0.02
573.106	0.03
573.449	0.02
573.792	0.02
574.134	0.02
574.477	0.02
574.819	0.02
575.162	0.03
575.504	0.02
575.847	0.02
576.189	0.01
576.531	0.01
576.873	0.02
577.215	0.02
577.558	0.01
577.9	0.01
578.242	0.02
578.584	0.01
578.926	0.01
579.267	0.01
579.609	0.01
579.951	0
580.293	0.01
580.634	0.01
580.976	0.01
581.318	0.01
581.659	0.01
582.001	0.01
582.342	0.02
582.683	0.01
583.025	0.01
583.366	0.01
583.707	0.01
584.049	0.01
584.39	0.01
584.731	0.01
585.072	0
585.413	0
585.754	0
586.095	0
586.435	0
586.776	0
587.117	-0
587.458	0.01
587.798	0.01
588.139	0
588.48	0.01
588.82	0
589.161	0.01
589.501	0
589.841	0.01
590.182	0.01
590.522	0.01
590.862	0
591.202	0.01
591.542	0.01
591.882	0.01
592.222	0.01
592.562	0.01
592.902	0.02
593.242	0.01
593.582	0.01
593.922	0.01
594.261	0.02
594.601	0.01
594.941	0.01
595.28	0.01
595.62	0.01
595.959	0.01
596.299	0
596.638	0.01
596.977	0.01
597.317	0
597.656	0.01
597.995	0.01
598.334	0.01
598.673	-0
599.012	0.01
599.351	0
599.69	-0
600.029	0
600.368	-0
600.707	-0
601.046	-0
601.384	0.01
601.723	0.01
602.061	0.01
602.4	0.01
602.738	0
603.077	0.01
603.415	0
603.754	0.01
604.092	0.01
604.43	0.01
604.768	0.01
605.107	0.01
605.445	0.01
605.783	0.01
606.121	0.01
606.459	0.01
606.796	0.01
607.134	0.01
607.472	0.01
607.81	0.02
608.148	0.02
608.485	0.02
608.823	0.02
609.16	0.01
609.498	0.01
609.835	0.01
610.173	0.01
610.51	0.01
610.847	0.01
611.185	0.01
611.522	0.01
611.859	0.01
612.196	0.02
612.533	0.01
612.87	0.01
613.207	0.02
613.544	0.01
613.881	0.02
614.217	0.02
614.554	0.02
614.891	0.02
615.228	0.01
615.564	0.02
615.901	0.02
616.237	0.01
616.574	0.02
616.91	0.02
617.246	0.02
617.583	0.02
617.919	0.02
618.255	0.02
618.591	0.02
618.927	0.03
619.263	0.02
619.599	0.02
619.935	0.02
620.271	0.02
620.607	0.02
620.943	0.02
621.279	0.02
621.614	0.03
621.95	0.02
622.286	0.01
622.621	0.02
622.957	0.02
623.292	0.02
623.627	0.02
623.963	0.02
624.298	0.02
624.633	0.02
624.968	0.01
625.304	0.02
625.639	0.02
625.974	0.02
626.309	0.02
626.644	0.01
626.979	0.02
627.313	0.01
627.648	0.02
627.983	0.02
628.318	0.02
628.652	0.01
628.987	0.01
629.321	0.01
629.656	0.01
629.99	0.01
630.325	0.01
630.659	0.01
630.993	0.01
631.327	0.01
631.662	0
631.996	0.01
632.33	0.01
632.664	0.01
632.998	0.01
633.332	0.01
633.666	0.01
633.999	0.01
634.333	0.01
634.667	0.01
635.001	0.01
635.334	0.01
635.668	0.01
636.001	0.02
636.335	0.01
636.668	0.01
637.001	0.01
637.335	0.01
637.668	0.01
638.001	0.02
638.334	0.01
638.668	0.02
639.001	0.02
639.334	0.02
639.667	0.01
639.999	0.01
640.332	0.01
640.665	0.01
640.998	0.01
641.331	0.01
641.663	0.01
641.996	0.01
642.328	0.01
642.661	0.01
642.993	0.01
643.326	0.02
643.658	0.01
643.99	0.01
644.323	0.01
644.655	0.02
644.987	0.01
645.319	0.01
645.651	0.02
645.983	0.02
646.315	0.01
646.647	0.01
646.979	0.01
647.31	0.01
647.642	0.02
647.974	0
648.305	0.01
648.637	0.01
648.968	0.01
649.3	0.01
649.631	0.02
649.963	0.02
650.294	0.02
650.625	0.02
650.957	0.02
651.288	0.02
651.619	0.02
651.95	0.01
652.281	0.01
652.612	0.02
652.943	0.02
653.274	0.02
653.604	0.01
653.935	0.02
654.266	0.01
654.596	0.02
654.927	0.02
655.258	0.02
655.588	0.01
655.918	0.02
656.249	0.02
656.579	0.01
656.909	0.01
657.24	0.01
657.57	0.01
657.9	0.01
658.23	0.02
658.56	0.01
658.89	0.01
659.22	0.01
659.55	0.01
659.88	0.02
660.209	0.01
660.539	0.01
660.869	0.01
661.198	0.01
661.528	0.01
661.857	0.01
662.187	0.01
662.516	0.01
662.846	0.02
663.175	0.01
663.504	0.01
663.833	0.01
664.163	0.01
664.492	0.01
664.821	0.01
665.15	0.01
665.479	0.01
665.807	0.01
666.136	0.01
666.465	0.01
666.794	0.02
667.122	0.01
667.451	0.01
667.78	0.01
668.108	0.01
668.437	0.01
668.765	0
669.093	0.01
669.422	0.01
669.75	0.01
670.078	0.01
670.406	0.01
670.734	0.01
671.062	0.01
671.39	0.01
671.718	0.01
672.046	0.01
672.374	0.01
672.702	0.01
673.029	0.01
673.357	0.01
673.685	0.01
674.012	0.01
674.34	0.01
674.667	0.02
674.995	0.01
675.322	0.01
675.649	0.01
675.977	0.01
676.304	0.01
676.631	0.01
676.958	0.01
677.285	0.01
677.612	0.01
677.939	0.01
678.266	0.01
678.593	0.01
678.92	0.01
679.246	0.01
679.573	0.01
679.9	0.02
680.226	0.02
680.553	0.02
680.879	0.02
681.206	0.01
681.532	0.02
681.858	0.02
682.184	0.02
682.511	0.02
682.837	0.02
683.163	0.02
683.489	0.02
683.815	0.01
684.141	0.01
684.467	0.02
684.793	0.01
685.118	0.01
685.444	0.01
685.77	0.01
686.095	0.01
686.421	0.01
686.746	0.01
687.072	0.01
687.397	0.01
687.723	0.01
688.048	0.01
688.373	0.01
688.698	0.01
689.023	0.01
689.349	0.01
689.674	0.01
689.999	0.01
690.323	0.01
690.648	0.01
690.973	0.01
691.298	0.01
691.623	0.02
691.947	0.01
692.272	0.01
692.596	0.02
692.921	0.02
693.245	0.03
693.57	0.01
693.894	0.02
694.218	0.02
694.543	0.02
694.867	0.01
695.191	0.01
695.515	0.01
695.839	0.01
696.163	0.01
696.487	0.01
696.811	0.01
697.135	0.01
697.458	0
697.782	0.01
698.106	0.01
698.429	0.01
698.753	0.01
699.076	0
699.4	0
699.723	0.01
700.046	0.01
700.37	0
700.693	0
701.016	0.01
701.339	0
701.662	0.01
701.985	0.01
702.308	0.01
702.631	0.01
702.954	0.01
703.277	0.01
703.599	0.01
703.922	0
704.245	0.01
704.567	0.01
704.89	0.01
705.212	0.01
705.535	0.01
705.857	0.01
706.179	0.01
706.502	0.02
706.824	0.01
707.146	0.01
707.468	0.01
707.79	0.01
708.112	0.02
708.434	0.01
708.756	0.02
709.078	0.02
709.399	0.02
709.721	0.02
710.043	0.02
710.364	0.02
710.686	0.02
711.007	0.03
711.329	0.02
711.65	0.03
711.972	0.02
712.293	0.02
712.614	0.02
712.935	0.02
713.256	0.03
713.577	0.02
713.898	0.02
714.219	0.03
714.54	0.03
714.861	0.03
715.182	0.02
715.503	0.02
715.823	0.02
716.144	0.02
716.464	0.03
716.785	0.02
717.105	0.02
717.426	0.02
717.746	0.02
718.066	0.02
718.387	0.02
718.707	0.02
719.027	0.02
719.347	0.03
719.667	0.02
719.987	0.02
720.307	0.01
720.627	0.01
720.947	0.02
721.266	0.02
721.586	0.01
721.906	0.02
722.225	0.02
722.545	0.01
722.864	0.02
723.184	0.01
723.503	0.01
723.823	0.01
724.142	0.01
724.461	0.01
724.78	0.02
725.099	0.02
725.418	0.02
725.737	0.02
726.056	0.02
726.375	0.01
726.694	0.01
727.013	0.02
727.331	0.02
727.65	0.02
727.969	0.01
728.287	0.01
728.606	0.02
728.924	0.02
729.242	0.02
729.561	0.01
729.879	0.02
730.197	0.01
730.515	0.01
730.834	0.01
731.152	0.02
731.47	0.01
731.788	0.02
732.105	0.01
732.423	0.02
732.741	0.01
733.059	0.02
733.376	0.02
733.694	0.02
734.012	0.02
734.329	0.02
734.647	0.03
734.964	0.02
735.281	0.03
735.599	0.02
735.916	0.02
736.233	0.02
736.55	0.03
736.867	0.03
737.184	0.03
737.501	0.03
737.818	0.03
738.135	0.03
738.452	0.02
738.768	0.03
739.085	0.02
739.402	0.02
739.718	0.03
740.035	0.02
740.351	0.02
740.668	0.02
740.984	0.02
741.3	0.02
741.617	0.03
741.933	0.02
742.249	0.02
742.565	0.03
742.881	0.03
743.197	0.03
743.513	0.03
743.829	0.03
744.144	0.03
744.46	0.03
744.776	0.03
745.091	0.03
745.407	0.03
745.722	0.04
746.038	0.03
746.353	0.03
746.669	0.03
746.984	0.04
747.299	0.04
747.614	0.04
747.93	0.04
748.245	0.03
748.56	0.03
748.875	0.03
749.189	0.03
749.504	0.04
749.819	0.03
750.134	0.03
750.448	0.03
750.763	0.03
751.078	0.03
751.392	0.03
751.707	0.04
752.021	0.03
752.335	0.03
752.65	0.03
752.964	0.03
753.278	0.03
753.592	0.04
753.906	0.04
754.22	0.04
754.534	0.04
754.848	0.04
755.162	0.04
755.476	0.04
755.789	0.03
756.103	0.03
756.417	0.03
756.73	0.04
757.044	0.03
757.357	0.03
757.671	0.05
757.984	0.04
758.297	0.05
758.61	0.04
758.924	0.05
759.237	0.05
759.55	0.05
759.863	0.05
760.176	0.05
760.488	0.04
760.801	0.05
761.114	0.05
761.427	0.04
761.739	0.05
762.052	0.05
762.365	0.05
762.677	0.05
762.99	0.06
763.302	0.05
763.614	0.05
763.926	0.05
764.239	0.05
764.551	0.06
764.863	0.06
765.175	0.05
765.487	0.05
765.799	0.05
766.111	0.05
766.423	0.05
766.734	0.06
767.046	0.05
767.358	0.05
767.669	0.05
767.981	0.05
768.292	0.05
768.604	0.05
768.915	0.05
769.226	0.05
769.537	0.05
769.849	0.05
770.16	0.04
770.471	0.04
770.782	0.04
771.093	0.04
771.404	0.05
771.715	0.05
772.025	0.04
772.336	0.04
772.647	0.04
772.957	0.05
773.268	0.04
773.578	0.04
773.889	0.04
774.199	0.04
774.51	0.04
774.82	0.05
775.13	0.05
775.44	0.04
775.75	0.03
776.06	0.04
776.37	0.05
776.68	0.04
776.99	0.04
777.3	0.05
777.61	0.04
777.92	0.05
778.229	0.05
778.539	0.05
778.848	0.05
779.158	0.05
779.467	0.05
779.777	0.05
780.086	0.04
780.395	0.04
780.704	0.05
781.013	0.04
781.323	0.04
781.632	0.04
781.941	0.05
782.249	0.05
782.558	0.04
782.867	0.05
783.176	0.04
783.485	0.04
783.793	0.04
784.102	0.04
784.41	0.04
784.719	0.05
785.027	0.04
785.335	0.04
785.644	0.03
785.952	0.04
786.26	0.03
786.568	0.02
786.876	0.03
787.184	0.02
787.492	0.02
787.8	0.03
788.108	0.02
788.416	0.02
788.723	0.03
789.031	0.02
789.338	0.02
789.646	0.03
789.953	0.02
790.261	0.02
790.568	0.03
790.876	0.02
791.183	0.02
791.49	0.03
791.797	0.03
792.104	0.03
792.411	0.02
792.718	0.03
793.025	0.03
793.332	0.03
793.639	0.03
793.945	0.03
794.252	0.03
794.559	0.02
794.865	0.02
795.172	0.03
795.478	0.03
795.784	0.03
796.091	0.02
796.397	0.02
796.703	0.02
797.009	0.03
797.315	0.02
797.622	0.03
797.927	0.03
798.233	0.02
798.539	0.02
798.845	0.02
799.151	0.02
799.456	0.02
799.762	0.01
800.068	0.01
800.373	0.01
800.679	0.01
800.984	0.01
801.289	0.02
801.595	0.01
801.9	0.01
802.205	0.01
802.51	0.02
802.815	0.02
803.12	0.02
803.425	0.02
803.73	0.02
804.035	0.03
804.339	0.02
804.644	0.02
804.949	0.02
805.253	0.02
805.558	0.02
805.862	0.01
806.167	0.02
806.471	0.02
806.775	0.02
807.08	0.02
807.384	0.03
807.688	0.02
807.992	0.02
808.296	0.02
808.6	0.02
808.904	0.02
809.207	0.02
809.511	0.01
809.815	0.01
810.119	0.02
810.422	0.02
810.726	0.02
811.029	0.03
811.332	0.03
811.636	0.02
811.939	0.02
812.242	0.03
812.546	0.02
812.849	0.02
813.152	0.03
813.455	0.02
813.758	0.03
814.06	0.03
814.363	0.03
814.666	0.03
814.969	0.03
815.271	0.03
815.574	0.03
815.877	0.02
816.179	0.03
816.481	0.04
816.784	0.03
817.086	0.04
817.388	0.04
817.69	0.04
817.993	0.04
818.295	0.04
818.597	0.05
818.899	0.04
819.2	0.05
819.502	0.05
819.804	0.05
820.106	0.05
820.407	0.05
820.709	0.06
821.01	0.06
821.312	0.05
821.613	0.06
821.915	0.05
822.216	0.06
822.517	0.05
822.818	0.04
823.119	0.05
823.42	0.05
823.721	0.04
824.022	0.05
824.323	0.05
824.624	0.05
824.925	0.06
825.226	0.05
825.526	0.05
825.827	0.05
826.127	0.06
826.428	0.06
826.728	0.06
827.028	0.06
827.329	0.06
827.629	0.06
827.929	0.07
828.229	0.06
828.529	0.06
828.829	0.07
829.129	0.06
829.429	0.06
829.729	0.06
830.029	0.06
830.328	0.07
830.628	0.07
830.927	0.07
831.227	0.07
831.526	0.06
831.826	0.06
832.125	0.07
832.424	0.07
832.724	0.06
833.023	0.07
833.322	0.07
833.621	0.07
833.92	0.07
834.219	0.07
834.518	0.07
834.816	0.07
835.115	0.08
835.414	0.08
835.712	0.08
836.011	0.08
836.309	0.09
836.608	0.09
836.906	0.09
837.205	0.08
837.503	0.08
837.801	0.08
838.099	0.09
838.397	0.1
838.695	0.1
838.993	0.1
839.291	0.1
839.589	0.11
839.887	0.11
840.184	0.11
840.482	0.1
840.78	0.11
841.077	0.11
841.375	0.1
841.672	0.11
841.969	0.11
842.267	0.12
842.564	0.11
842.861	0.11
843.158	0.11
843.455	0.11
843.752	0.12
844.049	0.11
844.346	0.11
844.643	0.11
844.94	0.11
845.236	0.11
845.533	0.11
845.83	0.11
846.126	0.13
846.423	0.11
846.719	0.13
847.015	0.13
847.312	0.12
847.608	0.13
847.904	0.12
848.2	0.12
848.496	0.12
848.792	0.13
849.088	0.12
849.384	0.12
849.68	0.12
849.975	0.13
850.271	0.12
850.567	0.13
850.862	0.12
851.158	0.12
851.453	0.13
851.748	0.12
852.044	0.12
852.339	0.13
852.634	0.14
852.929	0.13
853.224	0.13
853.519	0.15
853.814	0.14
854.109	0.14
854.404	0.15
854.699	0.15
854.994	0.15
855.288	0.15
855.583	0.14
855.877	0.15
856.172	0.16
856.466	0.15
856.76	0.15
857.055	0.15
857.349	0.16
857.643	0.17
857.937	0.16
858.231	0.16
858.525	0.16
858.819	0.16
859.113	0.17
859.407	0.17
859.701	0.18
859.994	0.16
860.288	0.17
860.581	0.18
860.875	0.18
861.168	0.19
861.462	0.19
861.755	0.19
862.048	0.18
862.341	0.19
862.634	0.19
862.928	0.19
863.221	0.18
863.513	0.2
863.806	0.21
864.099	0.2
864.392	0.2
864.685	0.2
864.977	0.21
865.27	0.2
865.562	0.2
865.855	0.21
866.147	0.21
866.44	0.2
866.732	0.21
867.024	0.2
867.316	0.22
867.608	0.2
867.9	0.2
868.192	0.19
868.484	0.2
868.776	0.19
869.068	0.19
869.359	0.2
869.651	0.2
869.943	0.2
870.234	0.21
870.526	0.2
870.817	0.21
871.108	0.21
871.4	0.2
871.691	0.21
871.982	0.22
872.273	0.21
872.564	0.19
872.855	0.21
873.146	0.22
873.437	0.22
873.728	0.24
874.019	0.21
874.309	0.21
874.6	0.23
874.89	0.22
875.181	0.2
875.471	0.21
875.762	0.22
876.052	0.21
876.342	0.23
876.632	0.23
876.922	0.22
877.213	0.23
877.503	0.25
877.792	0.23
878.082	0.21
878.372	0.23
878.662	0.26
878.952	0.23
879.241	0.24
879.531	0.23
879.82	0.22
880.11	0.23
880.399	0.22
880.688	0.25
880.978	0.25
881.267	0.25
