Data from 0p01mbtmapaq_discharge_nitrogen_Absorbance_16-11-53-763.txt Node
Date: Wed Nov 02 16:11:53 EDT 2022
User: Kiana
Spectrometer: FLMS00943
Trigger mode: 0
Integration Time (sec): 1.000000E-1
Scans to average: 1
Electric dark correction enabled: true
Nonlinearity correction enabled: false
Boxcar width: 0
XAxis mode: Wavelengths
Number of Pixels in Spectrum: 2048
>>>>>Begin Spectral Data<<<<<
179.651	0.14
180.037	0.14
180.424	0.14
180.81	-0.47
181.197	-0.24
181.583	-0.22
181.97	-0
182.356	-0.29
182.743	-0.34
183.129	-0
183.515	-0
183.901	-0
184.288	0.25
184.674	-0.08
185.06	-0
185.446	-0
185.832	-0.05
186.218	0.05
186.604	-0.13
186.99	-1.51
187.376	-0.06
187.762	0.14
188.148	-0.41
188.534	0.26
188.92	0.31
189.305	0.21
189.691	0.17
190.077	0.21
190.463	0.15
190.848	0.31
191.234	0.18
191.619	0.25
192.005	0.23
192.391	0.35
192.776	0.13
193.161	0.21
193.547	0.27
193.932	0.22
194.318	0.26
194.703	0.28
195.088	0.27
195.473	0.28
195.859	0.23
196.244	0.19
196.629	0.2
197.014	0.28
197.399	0.33
197.784	0.2
198.169	0.31
198.554	0.31
198.939	0.33
199.324	0.25
199.709	0.3
200.094	0.28
200.478	0.37
200.863	0.29
201.248	0.36
201.633	0.33
202.017	0.33
202.402	0.37
202.787	0.35
203.171	0.33
203.556	0.39
203.94	0.41
204.325	0.38
204.709	0.41
205.093	0.46
205.478	0.46
205.862	0.5
206.246	0.41
206.631	0.49
207.015	0.45
207.399	0.47
207.783	0.49
208.167	0.52
208.551	0.52
208.935	0.5
209.319	0.49
209.703	0.56
210.087	0.54
210.471	0.5
210.855	0.53
211.239	0.53
211.623	0.57
212.007	0.58
212.39	0.53
212.774	0.71
213.158	0.64
213.541	0.6
213.925	0.66
214.309	0.66
214.692	0.58
215.076	0.69
215.459	0.68
215.842	0.69
216.226	0.69
216.609	0.8
216.993	0.81
217.376	0.82
217.759	0.87
218.142	1.01
218.525	1
218.909	1.09
219.292	1.06
219.675	1.15
220.058	1.18
220.441	1.25
220.824	1.22
221.207	1.29
221.59	1.26
221.973	1.29
222.355	1.29
222.738	1.31
223.121	1.3
223.504	1.28
223.886	1.3
224.269	1.28
224.652	1.29
225.034	1.27
225.417	1.24
225.799	1.24
226.182	1.22
226.564	1.21
226.947	1.17
227.329	1.14
227.711	1.11
228.094	1.09
228.476	1.08
228.858	1.06
229.24	1.02
229.623	1
230.005	0.98
230.387	0.98
230.769	0.93
231.151	0.92
231.533	0.9
231.915	0.89
232.297	0.88
232.679	0.87
233.061	0.85
233.442	0.84
233.824	0.83
234.206	0.82
234.588	0.82
234.969	0.8
235.351	0.81
235.733	0.8
236.114	0.81
236.496	0.81
236.877	0.81
237.259	0.83
237.64	0.81
238.022	0.83
238.403	0.84
238.784	0.85
239.165	0.86
239.547	0.88
239.928	0.88
240.309	0.89
240.69	0.91
241.071	0.92
241.452	0.92
241.834	0.94
242.215	0.95
242.595	0.95
242.976	0.96
243.357	0.99
243.738	1
244.119	1.01
244.5	1.03
244.881	1.04
245.261	1.04
245.642	1.04
246.023	1.07
246.403	1.07
246.784	1.08
247.164	1.1
247.545	1.1
247.925	1.14
248.306	1.13
248.686	1.14
249.067	1.17
249.447	1.17
249.827	1.18
250.207	1.21
250.588	1.22
250.968	1.24
251.348	1.23
251.728	1.25
252.108	1.25
252.488	1.26
252.868	1.27
253.248	1.26
253.628	1.29
254.008	1.31
254.388	1.3
254.768	1.3
255.147	1.29
255.527	1.3
255.907	1.31
256.287	1.3
256.666	1.29
257.046	1.3
257.425	1.27
257.805	1.27
258.184	1.24
258.564	1.23
258.943	1.23
259.323	1.24
259.702	1.2
260.081	1.18
260.461	1.18
260.84	1.15
261.219	1.14
261.598	1.12
261.977	1.09
262.356	1.08
262.736	1.07
263.115	1.05
263.494	1.03
263.873	1.01
264.251	0.99
264.63	0.97
265.009	0.95
265.388	0.93
265.767	0.9
266.145	0.89
266.524	0.87
266.903	0.84
267.281	0.82
267.66	0.8
268.039	0.78
268.417	0.77
268.796	0.74
269.174	0.71
269.552	0.7
269.931	0.67
270.309	0.65
270.687	0.62
271.066	0.6
271.444	0.58
271.822	0.56
272.2	0.54
272.578	0.52
272.956	0.51
273.334	0.48
273.712	0.46
274.09	0.44
274.468	0.42
274.846	0.39
275.224	0.37
275.602	0.36
275.98	0.34
276.357	0.33
276.735	0.31
277.113	0.31
277.49	0.29
277.868	0.28
278.246	0.27
278.623	0.26
279.001	0.24
279.378	0.22
279.756	0.22
280.133	0.21
280.51	0.19
280.888	0.17
281.265	0.16
281.642	0.15
282.019	0.13
282.396	0.12
282.773	0.11
283.151	0.1
283.528	0.09
283.905	0.09
284.282	0.08
284.659	0.06
285.035	0.06
285.412	0.06
285.789	0.06
286.166	0.05
286.543	0.05
286.919	0.04
287.296	0.05
287.673	0.05
288.049	0.05
288.426	0.05
288.802	0.05
289.179	0.05
289.555	0.04
289.932	0.05
290.308	0.04
290.684	0.04
291.061	0.04
291.437	0.04
291.813	0.03
292.189	0.03
292.565	0.03
292.942	0.02
293.318	0.03
293.694	0.02
294.07	0.02
294.446	0.02
294.822	0.02
295.197	0.02
295.573	0.02
295.949	0.02
296.325	0.02
296.701	0.02
297.076	0.02
297.452	0.02
297.828	0.02
298.203	0.02
298.579	0.02
298.954	0.02
299.33	0.03
299.705	0.03
300.081	0.03
300.456	0.03
300.831	0.03
301.206	0.03
301.582	0.03
301.957	0.03
302.332	0.04
302.707	0.04
303.082	0.04
303.457	0.04
303.832	0.04
304.207	0.04
304.582	0.04
304.957	0.03
305.332	0.04
305.707	0.04
306.082	0.04
306.456	0.04
306.831	0.04
307.206	0.04
307.58	0.04
307.955	0.04
308.33	0.04
308.704	0.03
309.079	0.04
309.453	0.03
309.828	0.04
310.202	0.04
310.576	0.04
310.951	0.04
311.325	0.04
311.699	0.04
312.073	0.04
312.447	0.04
312.821	0.04
313.196	0.04
313.57	0.04
313.944	0.04
314.317	0.04
314.691	0.04
315.065	0.04
315.439	0.04
315.813	0.04
316.187	0.04
316.56	0.04
316.934	0.04
317.308	0.04
317.681	0.04
318.055	0.04
318.428	0.04
318.802	0.04
319.175	0.04
319.549	0.03
319.922	0.04
320.295	0.04
320.669	0.04
321.042	0.04
321.415	0.04
321.788	0.04
322.162	0.04
322.535	0.05
322.908	0.05
323.281	0.05
323.654	0.05
324.027	0.05
324.4	0.05
324.773	0.05
325.145	0.05
325.518	0.05
325.891	0.05
326.264	0.06
326.636	0.06
327.009	0.05
327.382	0.05
327.754	0.05
328.127	0.05
328.499	0.04
328.872	0.04
329.244	0.04
329.616	0.05
329.989	0.04
330.361	0.05
330.733	0.05
331.106	0.06
331.478	0.05
331.85	0.06
332.222	0.06
332.594	0.06
332.966	0.05
333.338	0.06
333.71	0.06
334.082	0.06
334.454	0.06
334.826	0.06
335.197	0.06
335.569	0.05
335.941	0.06
336.312	0.06
336.684	0.06
337.056	0.06
337.427	0.06
337.799	0.06
338.17	0.07
338.542	0.06
338.913	0.07
339.284	0.08
339.656	0.07
340.027	0.08
340.398	0.08
340.769	0.08
341.141	0.08
341.512	0.08
341.883	0.09
342.254	0.09
342.625	0.09
342.996	0.09
343.367	0.1
343.738	0.09
344.108	0.1
344.479	0.1
344.85	0.11
345.221	0.1
345.591	0.11
345.962	0.11
346.333	0.11
346.703	0.11
347.074	0.11
347.444	0.11
347.815	0.11
348.185	0.12
348.556	0.12
348.926	0.13
349.296	0.14
349.666	0.14
350.037	0.14
350.407	0.14
350.777	0.14
351.147	0.14
351.517	0.14
351.887	0.14
352.257	0.15
352.627	0.16
352.997	0.15
353.367	0.16
353.737	0.16
354.106	0.16
354.476	0.16
354.846	0.16
355.216	0.17
355.585	0.16
355.955	0.17
356.324	0.17
356.694	0.18
357.063	0.18
357.433	0.17
357.802	0.18
358.171	0.18
358.541	0.18
358.91	0.19
359.279	0.19
359.648	0.19
360.017	0.2
360.387	0.2
360.756	0.2
361.125	0.2
361.494	0.21
361.863	0.22
362.231	0.21
362.6	0.22
362.969	0.22
363.338	0.23
363.707	0.23
364.075	0.24
364.444	0.24
364.813	0.24
365.181	0.25
365.55	0.25
365.918	0.25
366.287	0.25
366.655	0.26
367.024	0.27
367.392	0.27
367.76	0.27
368.128	0.28
368.497	0.28
368.865	0.28
369.233	0.28
369.601	0.29
369.969	0.29
370.337	0.29
370.705	0.3
371.073	0.31
371.441	0.31
371.809	0.31
372.177	0.31
372.544	0.32
372.912	0.32
373.28	0.32
373.647	0.32
374.015	0.32
374.383	0.32
374.75	0.33
375.118	0.33
375.485	0.33
375.853	0.34
376.22	0.35
376.587	0.34
376.955	0.36
377.322	0.36
377.689	0.35
378.056	0.36
378.423	0.36
378.79	0.36
379.157	0.36
379.524	0.37
379.891	0.37
380.258	0.38
380.625	0.38
380.992	0.38
381.359	0.39
381.726	0.4
382.092	0.4
382.459	0.4
382.826	0.4
383.192	0.41
383.559	0.42
383.925	0.42
384.292	0.42
384.658	0.43
385.025	0.42
385.391	0.44
385.757	0.43
386.123	0.43
386.49	0.45
386.856	0.45
387.222	0.44
387.588	0.46
387.954	0.45
388.32	0.45
388.686	0.44
389.052	0.46
389.418	0.45
389.784	0.46
390.15	0.46
390.515	0.46
390.881	0.47
391.247	0.47
391.613	0.48
391.978	0.48
392.344	0.48
392.709	0.46
393.075	0.46
393.44	0.46
393.806	0.48
394.171	0.46
394.536	0.46
394.902	0.46
395.267	0.46
395.632	0.45
395.997	0.46
396.362	0.46
396.727	0.46
397.092	0.47
397.457	0.46
397.822	0.45
398.187	0.46
398.552	0.45
398.917	0.44
399.282	0.46
399.646	0.45
400.011	0.46
400.376	0.44
400.74	0.44
401.105	0.44
401.47	0.45
401.834	0.44
402.199	0.45
402.563	0.45
402.927	0.43
403.292	0.45
403.656	0.45
404.02	0.45
404.384	0.45
404.749	0.45
405.113	0.43
405.477	0.43
405.841	0.43
406.205	0.44
406.569	0.44
406.933	0.43
407.296	0.44
407.66	0.45
408.024	0.45
408.388	0.43
408.752	0.43
409.115	0.43
409.479	0.44
409.842	0.43
410.206	0.43
410.569	0.44
410.933	0.43
411.296	0.42
411.66	0.42
412.023	0.42
412.386	0.42
412.749	0.42
413.113	0.4
413.476	0.41
413.839	0.39
414.202	0.38
414.565	0.39
414.928	0.39
415.291	0.39
415.654	0.37
416.017	0.38
416.38	0.37
416.742	0.37
417.105	0.36
417.468	0.36
417.83	0.36
418.193	0.34
418.556	0.34
418.918	0.34
419.281	0.33
419.643	0.34
420.005	0.34
420.368	0.34
420.73	0.33
421.092	0.32
421.455	0.31
421.817	0.3
422.179	0.3
422.541	0.31
422.903	0.3
423.265	0.29
423.627	0.29
423.989	0.29
424.351	0.29
424.713	0.28
425.075	0.28
425.436	0.27
425.798	0.27
426.16	0.29
426.521	0.27
426.883	0.29
427.245	0.26
427.606	0.26
427.967	0.27
428.329	0.27
428.69	0.27
429.052	0.27
429.413	0.26
429.774	0.26
430.135	0.25
430.497	0.25
430.858	0.24
431.219	0.25
431.58	0.24
431.941	0.24
432.302	0.24
432.663	0.26
433.024	0.25
433.384	0.23
433.745	0.22
434.106	0.23
434.467	0.23
434.827	0.22
435.188	0.23
435.548	0.23
435.909	0.23
436.269	0.22
436.63	0.22
436.99	0.23
437.351	0.22
437.711	0.22
438.071	0.21
438.431	0.21
438.792	0.2
439.152	0.2
439.512	0.2
439.872	0.2
440.232	0.21
440.592	0.21
440.952	0.19
441.312	0.19
441.671	0.2
442.031	0.2
442.391	0.19
442.751	0.19
443.11	0.19
443.47	0.18
443.83	0.18
444.189	0.18
444.549	0.18
444.908	0.18
445.267	0.17
445.627	0.16
445.986	0.17
446.345	0.16
446.705	0.17
447.064	0.17
447.423	0.17
447.782	0.16
448.141	0.16
448.5	0.16
448.859	0.15
449.218	0.15
449.577	0.15
449.936	0.15
450.295	0.15
450.653	0.14
451.012	0.14
451.371	0.14
451.729	0.14
452.088	0.14
452.447	0.14
452.805	0.14
453.163	0.13
453.522	0.14
453.88	0.13
454.239	0.13
454.597	0.12
454.955	0.12
455.313	0.13
455.671	0.12
456.029	0.12
456.388	0.13
456.746	0.12
457.104	0.11
457.461	0.11
457.819	0.11
458.177	0.11
458.535	0.11
458.893	0.1
459.25	0.11
459.608	0.1
459.966	0.1
460.323	0.09
460.681	0.09
461.038	0.1
461.396	0.1
461.753	0.09
462.111	0.1
462.468	0.09
462.825	0.09
463.182	0.1
463.54	0.09
463.897	0.09
464.254	0.09
464.611	0.09
464.968	0.08
465.325	0.09
465.682	0.08
466.039	0.09
466.395	0.08
466.752	0.08
467.109	0.08
467.466	0.08
467.822	0.08
468.179	0.07
468.535	0.08
468.892	0.07
469.248	0.08
469.605	0.08
469.961	0.08
470.318	0.07
470.674	0.08
471.03	0.07
471.386	0.07
471.743	0.07
472.099	0.08
472.455	0.08
472.811	0.07
473.167	0.08
473.523	0.07
473.879	0.07
474.235	0.08
474.59	0.07
474.946	0.07
475.302	0.08
475.657	0.07
476.013	0.07
476.369	0.06
476.724	0.06
477.08	0.06
477.435	0.06
477.791	0.06
478.146	0.06
478.501	0.06
478.857	0.06
479.212	0.05
479.567	0.05
479.922	0.05
480.277	0.05
480.632	0.04
480.987	0.05
481.342	0.04
481.697	0.04
482.052	0.04
482.407	0.04
482.762	0.03
483.116	0.04
483.471	0.04
483.826	0.04
484.18	0.03
484.535	0.03
484.89	0.03
485.244	0.03
485.598	0.03
485.953	0.03
486.307	0.03
486.661	0.03
487.016	0.03
487.37	0.03
487.724	0.03
488.078	0.03
488.432	0.03
488.786	0.03
489.14	0.02
489.494	0.03
489.848	0.03
490.202	0.03
490.556	0.03
490.91	0.03
491.263	0.03
491.617	0.03
491.971	0.03
492.324	0.03
492.678	0.03
493.031	0.03
493.385	0.03
493.738	0.03
494.091	0.03
494.445	0.03
494.798	0.03
495.151	0.03
495.504	0.03
495.857	0.03
496.21	0.03
496.564	0.03
496.916	0.03
497.269	0.03
497.622	0.03
497.975	0.03
498.328	0.03
498.681	0.03
499.033	0.03
499.386	0.02
499.739	0.03
500.091	0.03
500.444	0.03
500.796	0.03
501.149	0.03
501.501	0.03
501.854	0.03
502.206	0.03
502.558	0.03
502.91	0.04
503.263	0.03
503.615	0.03
503.967	0.03
504.319	0.04
504.671	0.03
505.023	0.04
505.375	0.03
505.726	0.03
506.078	0.03
506.43	0.03
506.782	0.04
507.133	0.03
507.485	0.03
507.837	0.03
508.188	0.03
508.54	0.03
508.891	0.03
509.243	0.04
509.594	0.04
509.945	0.03
510.296	0.04
510.648	0.04
510.999	0.04
511.35	0.04
511.701	0.04
512.052	0.04
512.403	0.03
512.754	0.03
513.105	0.04
513.456	0.03
513.807	0.03
514.157	0.03
514.508	0.03
514.859	0.03
515.209	0.03
515.56	0.03
515.91	0.03
516.261	0.03
516.611	0.03
516.962	0.03
517.312	0.02
517.662	0.03
518.013	0.02
518.363	0.02
518.713	0.02
519.063	0.02
519.413	0.02
519.763	0.02
520.113	0.02
520.463	0.02
520.813	0.01
521.163	0.01
521.512	0.02
521.862	0.02
522.212	0.02
522.562	0.02
522.911	0.02
523.261	0.02
523.61	0.01
523.96	0.02
524.309	0.01
524.658	0.01
525.008	0.02
525.357	0.02
525.706	0.01
526.056	0.02
526.405	0.01
526.754	0.01
527.103	0.02
527.452	0.01
527.801	0.01
528.15	0.02
528.499	0.01
528.847	0.01
529.196	0.01
529.545	0.01
529.893	0.02
530.242	0.01
530.591	0.02
530.939	0.02
531.288	0.01
531.636	0.02
531.985	0.02
532.333	0.01
532.681	0.02
533.029	0.01
533.378	0.02
533.726	0.01
534.074	0.01
534.422	0.01
534.77	0.01
535.118	0.01
535.466	0.01
535.814	0.01
536.162	0.02
536.509	0.01
536.857	0.01
537.205	0.01
537.552	0.01
537.9	0.02
538.248	0.01
538.595	0.01
538.943	0.01
539.29	0.01
539.637	0.01
539.985	0.01
540.332	0.01
540.679	0.01
541.026	0.01
541.373	0.01
541.721	0.01
542.068	0.01
542.415	0.01
542.762	0.01
543.108	0
543.455	0
543.802	0.01
544.149	0.01
544.496	0
544.842	0.01
545.189	0.01
545.535	0.01
545.882	0.02
546.228	0.01
546.575	0.01
546.921	0.01
547.267	0.01
547.614	0.01
547.96	0.01
548.306	0
548.652	0.01
548.998	0.01
549.344	0.01
549.69	0.01
550.036	0.01
550.382	0.01
550.728	0.02
551.074	0.01
551.42	0.01
551.765	0.02
552.111	0.01
552.457	0.02
552.802	0.01
553.148	0.02
553.493	0.02
553.839	0.01
554.184	0.02
554.529	0.02
554.875	0.02
555.22	0.01
555.565	0.01
555.91	0.01
556.255	0.01
556.6	0.01
556.945	0
557.29	0.01
557.635	0
557.98	0.01
558.325	0.02
558.67	0.01
559.014	0.01
559.359	0.01
559.704	0
560.048	-0
560.393	0
560.737	0.01
561.082	0.01
561.426	0.01
561.77	0.01
562.115	0.01
562.459	0.01
562.803	0
563.147	0.01
563.491	0.01
563.835	0.01
564.179	0.01
564.523	0.01
564.867	0.01
565.211	0.02
565.555	0.01
565.899	0
566.242	0.01
566.586	0.01
566.93	0.02
567.273	0.02
567.617	0.01
567.96	0.01
568.304	0.01
568.647	0.01
568.99	0.01
569.334	0.01
569.677	0.02
570.02	0.01
570.363	0.02
570.706	0.02
571.049	0.03
571.392	0.02
571.735	0.02
572.078	0.02
572.421	0.02
572.764	0.02
573.106	0.02
573.449	0.02
573.792	0.02
574.134	0.02
574.477	0.02
574.819	0.03
575.162	0.03
575.504	0.02
575.847	0.02
576.189	0.02
576.531	0.02
576.873	0.01
577.215	0.02
577.558	0.02
577.9	0.01
578.242	0.01
578.584	0.01
578.926	0.02
579.267	0.01
579.609	0.01
579.951	0.01
580.293	0.01
580.634	0.01
580.976	0.01
581.318	0.01
581.659	0.01
582.001	0.01
582.342	0.01
582.683	0.01
583.025	0.01
583.366	0.01
583.707	0.01
584.049	0.01
584.39	0.01
584.731	0.01
585.072	0.01
585.413	0
585.754	0.01
586.095	0
586.435	0
586.776	0
587.117	0
587.458	0.01
587.798	0
588.139	0
588.48	0
588.82	0
589.161	0.01
589.501	0.01
589.841	0.01
590.182	0.01
590.522	0
590.862	0
591.202	0.01
591.542	0.01
591.882	0.01
592.222	0.01
592.562	0.02
592.902	0.02
593.242	0.01
593.582	0.01
593.922	0.02
594.261	0.01
594.601	0.02
594.941	0.01
595.28	0.01
595.62	0.01
595.959	0
596.299	0.01
596.638	0.01
596.977	0.01
597.317	0
597.656	0
597.995	0.01
598.334	0.01
598.673	0
599.012	0
599.351	0.01
599.69	0
600.029	0
600.368	-0
600.707	-0
601.046	0
601.384	0.01
601.723	0.01
602.061	0.01
602.4	0.01
602.738	0.01
603.077	0.01
603.415	0.01
603.754	0.01
604.092	0.01
604.43	0.01
604.768	0.01
605.107	0.01
605.445	0.01
605.783	0.01
606.121	0.01
606.459	0.01
606.796	0.01
607.134	0.01
607.472	0.02
607.81	0.01
608.148	0.01
608.485	0.01
608.823	0.01
609.16	0.01
609.498	0.01
609.835	0.02
610.173	0.01
610.51	0.01
610.847	0.01
611.185	0.01
611.522	0.01
611.859	0.01
612.196	0.01
612.533	0.01
612.87	0.01
613.207	0.02
613.544	0.02
613.881	0.02
614.217	0.02
614.554	0.02
614.891	0.02
615.228	0.01
615.564	0.02
615.901	0.02
616.237	0.02
616.574	0.02
616.91	0.02
617.246	0.01
617.583	0.02
617.919	0.02
618.255	0.02
618.591	0.02
618.927	0.02
619.263	0.02
619.599	0.02
619.935	0.02
620.271	0.03
620.607	0.03
620.943	0.02
621.279	0.02
621.614	0.02
621.95	0.02
622.286	0.02
622.621	0.02
622.957	0.03
623.292	0.02
623.627	0.02
623.963	0.02
624.298	0.02
624.633	0.02
624.968	0.02
625.304	0.02
625.639	0.02
625.974	0.02
626.309	0.01
626.644	0.01
626.979	0.02
627.313	0.02
627.648	0.02
627.983	0.01
628.318	0.02
628.652	0.01
628.987	0.01
629.321	0.01
629.656	0.01
629.99	0.01
630.325	0.01
630.659	0.01
630.993	0.01
631.327	0.01
631.662	0.01
631.996	0.01
632.33	0.01
632.664	0.01
632.998	0.01
633.332	0.01
633.666	0.01
633.999	0.01
634.333	0.01
634.667	0.01
635.001	0.01
635.334	0.01
635.668	0.01
636.001	0.01
636.335	0.01
636.668	0.01
637.001	0.02
637.335	0.01
637.668	0.01
638.001	0.01
638.334	0.02
638.668	0.02
639.001	0.02
639.334	0.02
639.667	0.02
639.999	0.02
640.332	0.01
640.665	0.02
640.998	0.01
641.331	0.01
641.663	0.01
641.996	0.01
642.328	0.01
642.661	0.02
642.993	0.01
643.326	0.02
643.658	0.01
643.99	0.02
644.323	0.02
644.655	0.01
644.987	0.02
645.319	0.02
645.651	0.02
645.983	0.02
646.315	0.01
646.647	0.01
646.979	0.01
647.31	0.01
647.642	0.01
647.974	0.01
648.305	0.01
648.637	0.01
648.968	0.01
649.3	0.01
649.631	0.01
649.963	0.01
650.294	0.02
650.625	0.02
650.957	0.02
651.288	0.01
651.619	0.02
651.95	0.02
652.281	0.01
652.612	0.02
652.943	0.02
653.274	0.02
653.604	0.01
653.935	0.02
654.266	0.02
654.596	0.01
654.927	0.02
655.258	0.02
655.588	0.02
655.918	0.02
656.249	0.02
656.579	0.01
656.909	0.01
657.24	0.01
657.57	0.01
657.9	0.01
658.23	0.02
658.56	0.02
658.89	0.02
659.22	0.01
659.55	0.01
659.88	0.01
660.209	0.01
660.539	0.01
660.869	0.01
661.198	0.01
661.528	0.01
661.857	0.01
662.187	0.01
662.516	0.02
662.846	0.02
663.175	0.01
663.504	0.01
663.833	0.01
664.163	0.01
664.492	0.01
664.821	0.02
665.15	0.01
665.479	0.01
665.807	0.01
666.136	0.01
666.465	0.01
666.794	0.01
667.122	0.01
667.451	0.01
667.78	0.01
668.108	0.01
668.437	0.01
668.765	0.01
669.093	0.01
669.422	0.01
669.75	0.01
670.078	0.01
670.406	0.01
670.734	0
671.062	0.01
671.39	0.01
671.718	0.01
672.046	0.01
672.374	0.01
672.702	0.01
673.029	0.01
673.357	0.01
673.685	0.01
674.012	0.01
674.34	0.01
674.667	0.02
674.995	0.01
675.322	0.01
675.649	0.01
675.977	0.01
676.304	0.01
676.631	0.01
676.958	0.01
677.285	0.01
677.612	0.01
677.939	0
678.266	0.01
678.593	0.01
678.92	0.01
679.246	0.01
679.573	0.01
679.9	0.02
680.226	0.02
680.553	0.02
680.879	0.01
681.206	0.02
681.532	0.02
681.858	0.02
682.184	0.03
682.511	0.02
682.837	0.02
683.163	0.02
683.489	0.02
683.815	0.01
684.141	0.02
684.467	0.02
684.793	0.02
685.118	0.02
685.444	0.02
685.77	0.01
686.095	0.01
686.421	0.01
686.746	0.01
687.072	0.02
687.397	0.01
687.723	0
688.048	0.01
688.373	0.01
688.698	0.01
689.023	0.01
689.349	0.01
689.674	0.01
689.999	0.01
690.323	0.01
690.648	0.01
690.973	0.01
691.298	0.02
691.623	0.02
691.947	0.02
692.272	0.02
692.596	0.02
692.921	0.02
693.245	0.02
693.57	0.02
693.894	0.01
694.218	0.02
694.543	0.02
694.867	0.01
695.191	0.01
695.515	0.02
695.839	0.01
696.163	0.01
696.487	0.01
696.811	0.01
697.135	0.01
697.458	0.01
697.782	0.02
698.106	0.01
698.429	0.01
698.753	0.01
699.076	0.01
699.4	0
699.723	0.01
700.046	0
700.37	0
700.693	0
701.016	0.01
701.339	0.01
701.662	0
701.985	0
702.308	0.01
702.631	0.01
702.954	0.01
703.277	0
703.599	0.01
703.922	0
704.245	0.01
704.567	0.01
704.89	0.01
705.212	0.01
705.535	0.01
705.857	0.01
706.179	0.01
706.502	0.02
706.824	0.01
707.146	0.02
707.468	0.02
707.79	0.01
708.112	0.02
708.434	0.01
708.756	0.02
709.078	0.02
709.399	0.02
709.721	0.02
710.043	0.02
710.364	0.02
710.686	0.02
711.007	0.03
711.329	0.02
711.65	0.02
711.972	0.02
712.293	0.02
712.614	0.02
712.935	0.02
713.256	0.03
713.577	0.02
713.898	0.03
714.219	0.02
714.54	0.03
714.861	0.02
715.182	0.02
715.503	0.02
715.823	0.02
716.144	0.02
716.464	0.03
716.785	0.02
717.105	0.02
717.426	0.02
717.746	0.02
718.066	0.02
718.387	0.02
718.707	0.03
719.027	0.02
719.347	0.02
719.667	0.02
719.987	0.02
720.307	0.02
720.627	0.01
720.947	0.02
721.266	0.01
721.586	0.01
721.906	0.01
722.225	0.02
722.545	0.01
722.864	0.02
723.184	0.01
723.503	0.01
723.823	0.01
724.142	0
724.461	0.02
724.78	0.01
725.099	0.02
725.418	0.02
725.737	0.02
726.056	0.01
726.375	0.02
726.694	0.01
727.013	0.02
727.331	0.02
727.65	0.02
727.969	0.01
728.287	0.01
728.606	0.02
728.924	0.01
729.242	0.02
729.561	0.01
729.879	0.02
730.197	0.01
730.515	0.01
730.834	0.02
731.152	0.02
731.47	0.02
731.788	0.02
732.105	0.02
732.423	0.03
732.741	0.02
733.059	0.02
733.376	0.02
733.694	0.02
734.012	0.03
734.329	0.02
734.647	0.03
734.964	0.02
735.281	0.02
735.599	0.02
735.916	0.03
736.233	0.01
736.55	0.03
736.867	0.03
737.184	0.03
737.501	0.02
737.818	0.02
738.135	0.03
738.452	0.03
738.768	0.03
739.085	0.02
739.402	0.03
739.718	0.03
740.035	0.02
740.351	0.02
740.668	0.02
740.984	0.03
741.3	0.02
741.617	0.03
741.933	0.03
742.249	0.02
742.565	0.03
742.881	0.03
743.197	0.02
743.513	0.03
743.829	0.02
744.144	0.02
744.46	0.03
744.776	0.03
745.091	0.03
745.407	0.03
745.722	0.04
746.038	0.03
746.353	0.03
746.669	0.03
746.984	0.04
747.299	0.03
747.614	0.03
747.93	0.03
748.245	0.04
748.56	0.03
748.875	0.03
749.189	0.03
749.504	0.04
749.819	0.03
750.134	0.03
750.448	0.03
750.763	0.03
751.078	0.03
751.392	0.03
751.707	0.04
752.021	0.03
752.335	0.04
752.65	0.03
752.964	0.03
753.278	0.04
753.592	0.04
753.906	0.04
754.22	0.04
754.534	0.04
754.848	0.03
755.162	0.04
755.476	0.04
755.789	0.04
756.103	0.04
756.417	0.04
756.73	0.04
757.044	0.04
757.357	0.04
757.671	0.05
757.984	0.04
758.297	0.05
758.61	0.04
758.924	0.05
759.237	0.05
759.55	0.05
759.863	0.04
760.176	0.04
760.488	0.04
760.801	0.05
761.114	0.05
761.427	0.05
761.739	0.05
762.052	0.05
762.365	0.05
762.677	0.05
762.99	0.06
763.302	0.05
763.614	0.05
763.926	0.05
764.239	0.05
764.551	0.06
764.863	0.05
765.175	0.06
765.487	0.05
765.799	0.05
766.111	0.05
766.423	0.06
766.734	0.05
767.046	0.05
767.358	0.04
767.669	0.05
767.981	0.05
768.292	0.05
768.604	0.05
768.915	0.05
769.226	0.04
769.537	0.05
769.849	0.04
770.16	0.05
770.471	0.05
770.782	0.04
771.093	0.05
771.404	0.05
771.715	0.04
772.025	0.04
772.336	0.04
772.647	0.04
772.957	0.05
773.268	0.03
773.578	0.04
773.889	0.04
774.199	0.03
774.51	0.04
774.82	0.05
775.13	0.05
775.44	0.04
775.75	0.04
776.06	0.04
776.37	0.04
776.68	0.04
776.99	0.04
777.3	0.05
777.61	0.04
777.92	0.04
778.229	0.04
778.539	0.05
778.848	0.05
779.158	0.05
779.467	0.05
779.777	0.05
780.086	0.05
780.395	0.05
780.704	0.05
781.013	0.05
781.323	0.04
781.632	0.04
781.941	0.04
782.249	0.05
782.558	0.05
782.867	0.05
783.176	0.03
783.485	0.05
783.793	0.04
784.102	0.04
784.41	0.04
784.719	0.05
785.027	0.04
785.335	0.04
785.644	0.03
785.952	0.03
786.26	0.03
786.568	0.02
786.876	0.03
787.184	0.01
787.492	0.02
787.8	0.03
788.108	0.02
788.416	0.02
788.723	0.03
789.031	0.02
789.338	0.02
789.646	0.03
789.953	0.02
790.261	0.03
790.568	0.02
790.876	0.02
791.183	0.02
791.49	0.03
791.797	0.02
792.104	0.02
792.411	0.02
792.718	0.03
793.025	0.03
793.332	0.03
793.639	0.03
793.945	0.03
794.252	0.03
794.559	0.03
794.865	0.03
795.172	0.03
795.478	0.03
795.784	0.03
796.091	0.02
796.397	0.02
796.703	0.03
797.009	0.02
797.315	0.03
797.622	0.03
797.927	0.02
798.233	0.02
798.539	0.02
798.845	0.02
799.151	0.03
799.456	0.02
799.762	0.01
800.068	0.01
800.373	0.01
800.679	0.01
800.984	0.01
801.289	0.02
801.595	0.01
801.9	0.01
802.205	0.02
802.51	0.02
802.815	0.02
803.12	0.02
803.425	0.02
803.73	0.02
804.035	0.03
804.339	0.02
804.644	0.02
804.949	0.03
805.253	0.02
805.558	0.02
805.862	0.01
806.167	0.02
806.471	0.03
806.775	0.02
807.08	0.03
807.384	0.02
807.688	0.02
807.992	0.02
808.296	0.02
808.6	0.02
808.904	0.02
809.207	0.02
809.511	0.02
809.815	0.02
810.119	0.02
810.422	0.02
810.726	0.02
811.029	0.02
811.332	0.02
811.636	0.02
811.939	0.02
812.242	0.03
812.546	0.02
812.849	0.03
813.152	0.03
813.455	0.03
813.758	0.02
814.06	0.03
814.363	0.02
814.666	0.03
814.969	0.03
815.271	0.03
815.574	0.03
815.877	0.03
816.179	0.04
816.481	0.03
816.784	0.03
817.086	0.04
817.388	0.04
817.69	0.04
817.993	0.04
818.295	0.03
818.597	0.04
818.899	0.04
819.2	0.05
819.502	0.05
819.804	0.05
820.106	0.05
820.407	0.05
820.709	0.06
821.01	0.06
821.312	0.05
821.613	0.06
821.915	0.05
822.216	0.05
822.517	0.05
822.818	0.05
823.119	0.05
823.42	0.05
823.721	0.05
824.022	0.06
824.323	0.05
824.624	0.05
824.925	0.06
825.226	0.06
825.526	0.06
825.827	0.05
826.127	0.06
826.428	0.05
826.728	0.06
827.028	0.06
827.329	0.06
827.629	0.06
827.929	0.07
828.229	0.06
828.529	0.06
828.829	0.07
829.129	0.06
829.429	0.06
829.729	0.07
830.029	0.06
830.328	0.07
830.628	0.06
830.927	0.07
831.227	0.07
831.526	0.06
831.826	0.06
832.125	0.06
832.424	0.06
832.724	0.07
833.023	0.07
833.322	0.07
833.621	0.07
833.92	0.06
834.219	0.08
834.518	0.07
834.816	0.08
835.115	0.08
835.414	0.07
835.712	0.08
836.011	0.08
836.309	0.09
836.608	0.09
836.906	0.1
837.205	0.09
837.503	0.09
837.801	0.09
838.099	0.09
838.397	0.1
838.695	0.1
838.993	0.1
839.291	0.1
839.589	0.1
839.887	0.1
840.184	0.11
840.482	0.11
840.78	0.11
841.077	0.11
841.375	0.11
841.672	0.11
841.969	0.1
842.267	0.12
842.564	0.11
842.861	0.11
843.158	0.11
843.455	0.11
843.752	0.11
844.049	0.11
844.346	0.11
844.643	0.11
844.94	0.11
845.236	0.11
845.533	0.11
845.83	0.13
846.126	0.12
846.423	0.12
846.719	0.13
847.015	0.12
847.312	0.12
847.608	0.12
847.904	0.13
848.2	0.13
848.496	0.12
848.792	0.13
849.088	0.13
849.384	0.12
849.68	0.13
849.975	0.13
850.271	0.13
850.567	0.13
850.862	0.13
851.158	0.12
851.453	0.14
851.748	0.12
852.044	0.12
852.339	0.13
852.634	0.14
852.929	0.13
853.224	0.14
853.519	0.14
853.814	0.15
854.109	0.14
854.404	0.15
854.699	0.15
854.994	0.15
855.288	0.15
855.583	0.15
855.877	0.15
856.172	0.16
856.466	0.16
856.76	0.15
857.055	0.15
857.349	0.16
857.643	0.16
857.937	0.17
858.231	0.16
858.525	0.16
858.819	0.17
859.113	0.17
859.407	0.16
859.701	0.18
859.994	0.16
860.288	0.17
860.581	0.17
860.875	0.17
861.168	0.18
861.462	0.19
861.755	0.19
862.048	0.19
862.341	0.19
862.634	0.19
862.928	0.19
863.221	0.19
863.513	0.19
863.806	0.2
864.099	0.2
864.392	0.2
864.685	0.2
864.977	0.2
865.27	0.2
865.562	0.21
865.855	0.21
866.147	0.2
866.44	0.19
866.732	0.21
867.024	0.19
867.316	0.21
867.608	0.21
867.9	0.2
868.192	0.19
868.484	0.21
868.776	0.2
869.068	0.2
869.359	0.21
869.651	0.19
869.943	0.19
870.234	0.21
870.526	0.21
870.817	0.21
871.108	0.22
871.4	0.21
871.691	0.22
871.982	0.22
872.273	0.2
872.564	0.22
872.855	0.22
873.146	0.21
873.437	0.21
873.728	0.24
874.019	0.21
874.309	0.21
874.6	0.22
874.89	0.21
875.181	0.21
875.471	0.23
875.762	0.23
876.052	0.22
876.342	0.22
876.632	0.21
876.922	0.23
877.213	0.21
877.503	0.22
877.792	0.24
878.082	0.22
878.372	0.24
878.662	0.23
878.952	0.22
879.241	0.23
879.531	0.22
879.82	0.24
880.11	0.23
880.399	0.23
880.688	0.23
880.978	0.23
881.267	0.23
