Data from 0p01mbtmapaq_charge_nitrogen_Absorbance_16-07-36-926.txt Node
Date: Wed Nov 02 16:07:36 EDT 2022
User: Kiana
Spectrometer: FLMS00943
Trigger mode: 0
Integration Time (sec): 1.000000E-1
Scans to average: 1
Electric dark correction enabled: true
Nonlinearity correction enabled: false
Boxcar width: 0
XAxis mode: Wavelengths
Number of Pixels in Spectrum: 2048
>>>>>Begin Spectral Data<<<<<
179.651	-0
180.037	-0
180.424	-0
180.81	-1.16
181.197	-0.31
181.583	0.14
181.97	0.41
182.356	0.5
182.743	-0
183.129	0.46
183.515	-0
183.901	-0
184.288	-0
184.674	-0.33
185.06	-0.73
185.446	0.56
185.832	-0.36
186.218	0.58
186.604	-0.03
186.99	-0
187.376	0.8
187.762	0.03
188.148	-0.21
188.534	0.21
188.92	0.21
189.305	0.17
189.691	0.2
190.077	0.21
190.463	0.18
190.848	0.32
191.234	0.28
191.619	0.18
192.005	0.23
192.391	0.24
192.776	0.14
193.161	0.15
193.547	0.15
193.932	0.22
194.318	0.23
194.703	0.27
195.088	0.21
195.473	0.15
195.859	0.24
196.244	0.28
196.629	0.24
197.014	0.31
197.399	0.35
197.784	0.35
198.169	0.35
198.554	0.32
198.939	0.39
199.324	0.3
199.709	0.31
200.094	0.34
200.478	0.42
200.863	0.24
201.248	0.37
201.633	0.36
202.017	0.33
202.402	0.39
202.787	0.28
203.171	0.33
203.556	0.42
203.94	0.32
204.325	0.38
204.709	0.4
205.093	0.43
205.478	0.38
205.862	0.44
206.246	0.44
206.631	0.45
207.015	0.43
207.399	0.49
207.783	0.52
208.167	0.49
208.551	0.5
208.935	0.45
209.319	0.5
209.703	0.55
210.087	0.57
210.471	0.48
210.855	0.53
211.239	0.49
211.623	0.56
212.007	0.52
212.39	0.55
212.774	0.69
213.158	0.6
213.541	0.67
213.925	0.64
214.309	0.66
214.692	0.61
215.076	0.66
215.459	0.63
215.842	0.65
216.226	0.63
216.609	0.78
216.993	0.79
217.376	0.86
217.759	0.86
218.142	0.94
218.525	0.95
218.909	1.05
219.292	1.04
219.675	1.1
220.058	1.1
220.441	1.19
220.824	1.19
221.207	1.21
221.59	1.22
221.973	1.22
222.355	1.27
222.738	1.26
223.121	1.24
223.504	1.25
223.886	1.26
224.269	1.24
224.652	1.21
225.034	1.23
225.417	1.21
225.799	1.21
226.182	1.18
226.564	1.2
226.947	1.16
227.329	1.14
227.711	1.11
228.094	1.11
228.476	1.09
228.858	1.07
229.24	1.05
229.623	1.04
230.005	1.01
230.387	1
230.769	0.98
231.151	0.95
231.533	0.94
231.915	0.95
232.297	0.92
232.679	0.91
233.061	0.9
233.442	0.88
233.824	0.89
234.206	0.86
234.588	0.87
234.969	0.86
235.351	0.87
235.733	0.87
236.114	0.88
236.496	0.88
236.877	0.87
237.259	0.88
237.64	0.89
238.022	0.9
238.403	0.9
238.784	0.94
239.165	0.94
239.547	0.96
239.928	0.96
240.309	0.98
240.69	0.98
241.071	1
241.452	1.01
241.834	1.03
242.215	1.05
242.595	1.06
242.976	1.07
243.357	1.09
243.738	1.11
244.119	1.14
244.5	1.15
244.881	1.16
245.261	1.17
245.642	1.17
246.023	1.2
246.403	1.2
246.784	1.22
247.164	1.25
247.545	1.25
247.925	1.27
248.306	1.29
248.686	1.3
249.067	1.33
249.447	1.33
249.827	1.35
250.207	1.37
250.588	1.35
250.968	1.4
251.348	1.39
251.728	1.4
252.108	1.41
252.488	1.43
252.868	1.44
253.248	1.42
253.628	1.43
254.008	1.44
254.388	1.46
254.768	1.45
255.147	1.44
255.527	1.45
255.907	1.43
256.287	1.44
256.666	1.47
257.046	1.42
257.425	1.43
257.805	1.42
258.184	1.4
258.564	1.35
258.943	1.39
259.323	1.36
259.702	1.36
260.081	1.31
260.461	1.31
260.84	1.27
261.219	1.28
261.598	1.25
261.977	1.23
262.356	1.2
262.736	1.19
263.115	1.17
263.494	1.15
263.873	1.13
264.251	1.11
264.63	1.09
265.009	1.07
265.388	1.03
265.767	1
266.145	0.99
266.524	0.97
266.903	0.94
267.281	0.92
267.66	0.88
268.039	0.86
268.417	0.85
268.796	0.81
269.174	0.79
269.552	0.78
269.931	0.73
270.309	0.7
270.687	0.68
271.066	0.65
271.444	0.64
271.822	0.62
272.2	0.59
272.578	0.56
272.956	0.54
273.334	0.5
273.712	0.48
274.09	0.46
274.468	0.44
274.846	0.41
275.224	0.39
275.602	0.36
275.98	0.34
276.357	0.34
276.735	0.3
277.113	0.3
277.49	0.28
277.868	0.27
278.246	0.26
278.623	0.25
279.001	0.23
279.378	0.21
279.756	0.2
280.133	0.19
280.51	0.17
280.888	0.14
281.265	0.14
281.642	0.12
282.019	0.11
282.396	0.1
282.773	0.09
283.151	0.08
283.528	0.07
283.905	0.07
284.282	0.06
284.659	0.05
285.035	0.05
285.412	0.05
285.789	0.04
286.166	0.04
286.543	0.04
286.919	0.04
287.296	0.04
287.673	0.04
288.049	0.04
288.426	0.04
288.802	0.04
289.179	0.04
289.555	0.04
289.932	0.04
290.308	0.03
290.684	0.03
291.061	0.03
291.437	0.03
291.813	0.03
292.189	0.03
292.565	0.02
292.942	0.02
293.318	0.02
293.694	0.02
294.07	0.01
294.446	0.01
294.822	0.02
295.197	0.01
295.573	0.01
295.949	0.01
296.325	0.01
296.701	0.01
297.076	0.02
297.452	0.02
297.828	0.01
298.203	0.02
298.579	0.02
298.954	0.02
299.33	0.02
299.705	0.02
300.081	0.02
300.456	0.03
300.831	0.03
301.206	0.03
301.582	0.03
301.957	0.03
302.332	0.03
302.707	0.03
303.082	0.03
303.457	0.03
303.832	0.03
304.207	0.03
304.582	0.03
304.957	0.03
305.332	0.03
305.707	0.03
306.082	0.03
306.456	0.03
306.831	0.03
307.206	0.03
307.58	0.03
307.955	0.03
308.33	0.03
308.704	0.03
309.079	0.03
309.453	0.03
309.828	0.03
310.202	0.03
310.576	0.03
310.951	0.03
311.325	0.03
311.699	0.03
312.073	0.03
312.447	0.03
312.821	0.03
313.196	0.03
313.57	0.03
313.944	0.03
314.317	0.03
314.691	0.03
315.065	0.03
315.439	0.03
315.813	0.03
316.187	0.03
316.56	0.03
316.934	0.03
317.308	0.03
317.681	0.03
318.055	0.03
318.428	0.03
318.802	0.03
319.175	0.03
319.549	0.03
319.922	0.03
320.295	0.03
320.669	0.03
321.042	0.03
321.415	0.03
321.788	0.03
322.162	0.03
322.535	0.04
322.908	0.04
323.281	0.04
323.654	0.04
324.027	0.04
324.4	0.04
324.773	0.04
325.145	0.04
325.518	0.04
325.891	0.05
326.264	0.05
326.636	0.05
327.009	0.04
327.382	0.05
327.754	0.04
328.127	0.03
328.499	0.03
328.872	0.03
329.244	0.04
329.616	0.03
329.989	0.04
330.361	0.04
330.733	0.04
331.106	0.05
331.478	0.04
331.85	0.05
332.222	0.05
332.594	0.05
332.966	0.04
333.338	0.05
333.71	0.05
334.082	0.05
334.454	0.05
334.826	0.05
335.197	0.05
335.569	0.05
335.941	0.05
336.312	0.05
336.684	0.05
337.056	0.05
337.427	0.05
337.799	0.05
338.17	0.06
338.542	0.05
338.913	0.06
339.284	0.06
339.656	0.06
340.027	0.07
340.398	0.07
340.769	0.07
341.141	0.07
341.512	0.07
341.883	0.08
342.254	0.07
342.625	0.08
342.996	0.08
343.367	0.09
343.738	0.09
344.108	0.09
344.479	0.09
344.85	0.09
345.221	0.09
345.591	0.09
345.962	0.1
346.333	0.1
346.703	0.1
347.074	0.1
347.444	0.1
347.815	0.11
348.185	0.11
348.556	0.11
348.926	0.12
349.296	0.13
349.666	0.13
350.037	0.13
350.407	0.13
350.777	0.13
351.147	0.13
351.517	0.13
351.887	0.14
352.257	0.14
352.627	0.14
352.997	0.14
353.367	0.15
353.737	0.15
354.106	0.15
354.476	0.15
354.846	0.15
355.216	0.16
355.585	0.16
355.955	0.16
356.324	0.16
356.694	0.16
357.063	0.17
357.433	0.16
357.802	0.17
358.171	0.18
358.541	0.18
358.91	0.18
359.279	0.18
359.648	0.19
360.017	0.19
360.387	0.2
360.756	0.2
361.125	0.2
361.494	0.2
361.863	0.21
362.231	0.22
362.6	0.21
362.969	0.22
363.338	0.22
363.707	0.23
364.075	0.23
364.444	0.24
364.813	0.24
365.181	0.25
365.55	0.24
365.918	0.25
366.287	0.25
366.655	0.26
367.024	0.27
367.392	0.27
367.76	0.27
368.128	0.27
368.497	0.29
368.865	0.29
369.233	0.3
369.601	0.31
369.969	0.3
370.337	0.3
370.705	0.3
371.073	0.31
371.441	0.32
371.809	0.32
372.177	0.32
372.544	0.32
372.912	0.34
373.28	0.33
373.647	0.33
374.015	0.34
374.383	0.33
374.75	0.33
375.118	0.35
375.485	0.35
375.853	0.34
376.22	0.35
376.587	0.35
376.955	0.36
377.322	0.37
377.689	0.36
378.056	0.37
378.423	0.37
378.79	0.38
379.157	0.38
379.524	0.38
379.891	0.38
380.258	0.39
380.625	0.39
380.992	0.4
381.359	0.41
381.726	0.41
382.092	0.43
382.459	0.42
382.826	0.43
383.192	0.42
383.559	0.43
383.925	0.44
384.292	0.45
384.658	0.46
385.025	0.46
385.391	0.47
385.757	0.46
386.123	0.46
386.49	0.47
386.856	0.47
387.222	0.49
387.588	0.48
387.954	0.49
388.32	0.48
388.686	0.48
389.052	0.5
389.418	0.48
389.784	0.49
390.15	0.51
390.515	0.49
390.881	0.5
391.247	0.5
391.613	0.51
391.978	0.51
392.344	0.5
392.709	0.5
393.075	0.5
393.44	0.49
393.806	0.5
394.171	0.49
394.536	0.49
394.902	0.49
395.267	0.49
395.632	0.5
395.997	0.49
396.362	0.49
396.727	0.49
397.092	0.49
397.457	0.49
397.822	0.49
398.187	0.47
398.552	0.48
398.917	0.47
399.282	0.47
399.646	0.47
400.011	0.47
400.376	0.47
400.74	0.47
401.105	0.47
401.47	0.46
401.834	0.47
402.199	0.47
402.563	0.47
402.927	0.48
403.292	0.47
403.656	0.47
404.02	0.48
404.384	0.48
404.749	0.47
405.113	0.47
405.477	0.46
405.841	0.46
406.205	0.46
406.569	0.46
406.933	0.47
407.296	0.48
407.66	0.48
408.024	0.47
408.388	0.47
408.752	0.46
409.115	0.47
409.479	0.46
409.842	0.45
410.206	0.46
410.569	0.45
410.933	0.46
411.296	0.45
411.66	0.45
412.023	0.45
412.386	0.44
412.749	0.44
413.113	0.42
413.476	0.44
413.839	0.43
414.202	0.42
414.565	0.42
414.928	0.41
415.291	0.42
415.654	0.39
416.017	0.4
416.38	0.38
416.742	0.38
417.105	0.39
417.468	0.38
417.83	0.38
418.193	0.38
418.556	0.36
418.918	0.36
419.281	0.35
419.643	0.36
420.005	0.37
420.368	0.35
420.73	0.35
421.092	0.34
421.455	0.33
421.817	0.32
422.179	0.31
422.541	0.31
422.903	0.31
423.265	0.31
423.627	0.31
423.989	0.29
424.351	0.3
424.713	0.29
425.075	0.29
425.436	0.29
425.798	0.28
426.16	0.3
426.521	0.28
426.883	0.29
427.245	0.28
427.606	0.27
427.967	0.28
428.329	0.28
428.69	0.28
429.052	0.28
429.413	0.28
429.774	0.27
430.135	0.26
430.497	0.25
430.858	0.25
431.219	0.25
431.58	0.26
431.941	0.25
432.302	0.25
432.663	0.27
433.024	0.27
433.384	0.24
433.745	0.24
434.106	0.25
434.467	0.25
434.827	0.23
435.188	0.23
435.548	0.24
435.909	0.24
436.269	0.23
436.63	0.23
436.99	0.23
437.351	0.24
437.711	0.23
438.071	0.22
438.431	0.22
438.792	0.22
439.152	0.22
439.512	0.21
439.872	0.21
440.232	0.22
440.592	0.22
440.952	0.21
441.312	0.21
441.671	0.21
442.031	0.2
442.391	0.19
442.751	0.2
443.11	0.2
443.47	0.2
443.83	0.19
444.189	0.19
444.549	0.19
444.908	0.19
445.267	0.18
445.627	0.19
445.986	0.18
446.345	0.18
446.705	0.19
447.064	0.18
447.423	0.17
447.782	0.17
448.141	0.17
448.5	0.17
448.859	0.17
449.218	0.16
449.577	0.16
449.936	0.16
450.295	0.15
450.653	0.16
451.012	0.15
451.371	0.15
451.729	0.15
452.088	0.16
452.447	0.15
452.805	0.15
453.163	0.14
453.522	0.15
453.88	0.14
454.239	0.14
454.597	0.14
454.955	0.14
455.313	0.14
455.671	0.14
456.029	0.13
456.388	0.14
456.746	0.13
457.104	0.13
457.461	0.13
457.819	0.13
458.177	0.13
458.535	0.12
458.893	0.12
459.25	0.12
459.608	0.12
459.966	0.12
460.323	0.11
460.681	0.11
461.038	0.11
461.396	0.11
461.753	0.1
462.111	0.11
462.468	0.1
462.825	0.11
463.182	0.1
463.54	0.1
463.897	0.1
464.254	0.1
464.611	0.1
464.968	0.1
465.325	0.09
465.682	0.09
466.039	0.09
466.395	0.09
466.752	0.09
467.109	0.1
467.466	0.1
467.822	0.09
468.179	0.09
468.535	0.09
468.892	0.09
469.248	0.09
469.605	0.09
469.961	0.09
470.318	0.09
470.674	0.09
471.03	0.09
471.386	0.08
471.743	0.09
472.099	0.08
472.455	0.09
472.811	0.09
473.167	0.08
473.523	0.08
473.879	0.09
474.235	0.08
474.59	0.08
474.946	0.08
475.302	0.08
475.657	0.08
476.013	0.08
476.369	0.08
476.724	0.08
477.08	0.07
477.435	0.07
477.791	0.07
478.146	0.07
478.501	0.07
478.857	0.06
479.212	0.06
479.567	0.06
479.922	0.05
480.277	0.06
480.632	0.05
480.987	0.05
481.342	0.05
481.697	0.05
482.052	0.04
482.407	0.05
482.762	0.04
483.116	0.05
483.471	0.04
483.826	0.04
484.18	0.04
484.535	0.04
484.89	0.04
485.244	0.04
485.598	0.03
485.953	0.04
486.307	0.04
486.661	0.04
487.016	0.03
487.37	0.03
487.724	0.03
488.078	0.03
488.432	0.03
488.786	0.03
489.14	0.03
489.494	0.03
489.848	0.03
490.202	0.03
490.556	0.04
490.91	0.04
491.263	0.03
491.617	0.03
491.971	0.04
492.324	0.03
492.678	0.03
493.031	0.03
493.385	0.03
493.738	0.03
494.091	0.03
494.445	0.03
494.798	0.03
495.151	0.03
495.504	0.03
495.857	0.03
496.21	0.03
496.564	0.03
496.916	0.03
497.269	0.03
497.622	0.03
497.975	0.03
498.328	0.03
498.681	0.03
499.033	0.03
499.386	0.03
499.739	0.04
500.091	0.03
500.444	0.03
500.796	0.03
501.149	0.03
501.501	0.03
501.854	0.03
502.206	0.03
502.558	0.03
502.91	0.03
503.263	0.03
503.615	0.04
503.967	0.04
504.319	0.04
504.671	0.04
505.023	0.03
505.375	0.04
505.726	0.04
506.078	0.03
506.43	0.04
506.782	0.04
507.133	0.03
507.485	0.04
507.837	0.03
508.188	0.03
508.54	0.03
508.891	0.04
509.243	0.04
509.594	0.04
509.945	0.03
510.296	0.04
510.648	0.04
510.999	0.04
511.35	0.04
511.701	0.04
512.052	0.04
512.403	0.04
512.754	0.03
513.105	0.04
513.456	0.03
513.807	0.03
514.157	0.03
514.508	0.03
514.859	0.03
515.209	0.03
515.56	0.03
515.91	0.03
516.261	0.03
516.611	0.03
516.962	0.02
517.312	0.02
517.662	0.03
518.013	0.02
518.363	0.03
518.713	0.02
519.063	0.02
519.413	0.02
519.763	0.02
520.113	0.01
520.463	0.01
520.813	0.01
521.163	0.01
521.512	0.02
521.862	0.02
522.212	0.02
522.562	0.02
522.911	0.01
523.261	0.01
523.61	0.01
523.96	0.01
524.309	0.01
524.658	0.01
525.008	0.01
525.357	0.01
525.706	0.01
526.056	0.01
526.405	0.01
526.754	0.01
527.103	0.01
527.452	0.01
527.801	0.01
528.15	0.01
528.499	0.01
528.847	0.01
529.196	0.01
529.545	0.01
529.893	0.01
530.242	0.01
530.591	0.02
530.939	0.01
531.288	0.02
531.636	0.02
531.985	0.01
532.333	0.01
532.681	0.01
533.029	0.01
533.378	0.01
533.726	0.01
534.074	0.01
534.422	0.01
534.77	0.01
535.118	0.01
535.466	0.01
535.814	0.01
536.162	0.01
536.509	0.01
536.857	0.01
537.205	0.01
537.552	0.01
537.9	0.01
538.248	0.01
538.595	0.01
538.943	0.01
539.29	0
539.637	0.01
539.985	0.01
540.332	0.01
540.679	0
541.026	0.01
541.373	0
541.721	0.01
542.068	0
542.415	0.01
542.762	0
543.108	0
543.455	0
543.802	0.01
544.149	0.01
544.496	0
544.842	0
545.189	0
545.535	0.01
545.882	0.02
546.228	0.01
546.575	0.01
546.921	0.01
547.267	0.01
547.614	0.01
547.96	0.01
548.306	0
548.652	0.01
548.998	0.01
549.344	0.01
549.69	0.01
550.036	0
550.382	0.01
550.728	0.01
551.074	0.02
551.42	0.01
551.765	0.01
552.111	0.01
552.457	0.01
552.802	0.02
553.148	0.01
553.493	0.02
553.839	0.01
554.184	0.02
554.529	0.02
554.875	0.02
555.22	0.01
555.565	0.01
555.91	0.01
556.255	0.01
556.6	0
556.945	0
557.29	0.01
557.635	0
557.98	0.01
558.325	0.02
558.67	0.01
559.014	0.01
559.359	0
559.704	0
560.048	0
560.393	0
560.737	0.01
561.082	0.01
561.426	0
561.77	0.01
562.115	0.01
562.459	0.02
562.803	0.01
563.147	0.01
563.491	0.01
563.835	0.01
564.179	0.01
564.523	0.01
564.867	0.01
565.211	0.01
565.555	0.01
565.899	0.01
566.242	0.01
566.586	0.01
566.93	0.02
567.273	0.01
567.617	0.01
567.96	0.01
568.304	0.01
568.647	0.01
568.99	0.01
569.334	0.01
569.677	0.01
570.02	0.01
570.363	0.01
570.706	0.02
571.049	0.01
571.392	0.02
571.735	0.02
572.078	0.02
572.421	0.02
572.764	0.02
573.106	0.02
573.449	0.02
573.792	0.02
574.134	0.02
574.477	0.02
574.819	0.03
575.162	0.03
575.504	0.02
575.847	0.02
576.189	0.02
576.531	0.01
576.873	0.01
577.215	0.01
577.558	0.02
577.9	0.01
578.242	0.01
578.584	0.01
578.926	0.01
579.267	0.01
579.609	0.01
579.951	0.01
580.293	0.01
580.634	0.01
580.976	0.01
581.318	0.01
581.659	0.01
582.001	0.01
582.342	0.01
582.683	0.01
583.025	0.01
583.366	0.01
583.707	0.01
584.049	0
584.39	0.01
584.731	0
585.072	0
585.413	0
585.754	0
586.095	0.01
586.435	0.01
586.776	0
587.117	0
587.458	0.01
587.798	0
588.139	0.01
588.48	0.01
588.82	0
589.161	0.01
589.501	0
589.841	0.01
590.182	0.01
590.522	0
590.862	0
591.202	0.01
591.542	0.01
591.882	0.01
592.222	0.01
592.562	0.01
592.902	0.02
593.242	0.01
593.582	0.02
593.922	0.01
594.261	0.01
594.601	0.02
594.941	0.01
595.28	0.01
595.62	0.01
595.959	0.01
596.299	0.01
596.638	0
596.977	0
597.317	-0
597.656	-0
597.995	0.01
598.334	0.01
598.673	0
599.012	0
599.351	0.01
599.69	-0
600.029	0
600.368	-0
600.707	-0
601.046	0
601.384	0.01
601.723	0.01
602.061	0
602.4	0
602.738	-0
603.077	0.01
603.415	0.01
603.754	0
604.092	0.01
604.43	0.01
604.768	0.01
605.107	0.01
605.445	0.01
605.783	0.01
606.121	0.01
606.459	0.01
606.796	0.01
607.134	0.01
607.472	0.01
607.81	0.01
608.148	0.01
608.485	0.02
608.823	0.02
609.16	0.01
609.498	0.01
609.835	0.02
610.173	0.01
610.51	0.01
610.847	0.01
611.185	0.01
611.522	0.01
611.859	0.01
612.196	0.01
612.533	0.01
612.87	0.01
613.207	0.01
613.544	0.02
613.881	0.02
614.217	0.02
614.554	0.01
614.891	0.02
615.228	0.02
615.564	0.02
615.901	0.02
616.237	0.02
616.574	0.02
616.91	0.02
617.246	0.01
617.583	0.02
617.919	0.02
618.255	0.02
618.591	0.02
618.927	0.02
619.263	0.02
619.599	0.02
619.935	0.02
620.271	0.02
620.607	0.03
620.943	0.02
621.279	0.02
621.614	0.03
621.95	0.02
622.286	0.02
622.621	0.02
622.957	0.02
623.292	0.02
623.627	0.02
623.963	0.02
624.298	0.02
624.633	0.02
624.968	0.02
625.304	0.02
625.639	0.02
625.974	0.02
626.309	0.01
626.644	0.01
626.979	0.02
627.313	0.01
627.648	0.02
627.983	0.01
628.318	0.01
628.652	0.01
628.987	0.01
629.321	0.01
629.656	0.01
629.99	0.01
630.325	0.01
630.659	0.01
630.993	0.01
631.327	0.01
631.662	0
631.996	0.01
632.33	0.01
632.664	0.01
632.998	0.01
633.332	0.01
633.666	0.01
633.999	0.01
634.333	0.01
634.667	0.01
635.001	0.01
635.334	0.01
635.668	0.01
636.001	0.01
636.335	0.01
636.668	0.01
637.001	0.01
637.335	0.01
637.668	0.01
638.001	0.01
638.334	0.02
638.668	0.01
639.001	0.02
639.334	0.02
639.667	0.01
639.999	0.02
640.332	0.01
640.665	0.01
640.998	0.01
641.331	0.01
641.663	0.01
641.996	0.01
642.328	0.01
642.661	0.01
642.993	0.01
643.326	0.01
643.658	0.01
643.99	0.01
644.323	0.01
644.655	0.01
644.987	0.01
645.319	0.01
645.651	0.01
645.983	0.02
646.315	0.02
646.647	0.01
646.979	0.01
647.31	0.01
647.642	0.02
647.974	0.01
648.305	0.01
648.637	0.01
648.968	0.01
649.3	0.01
649.631	0.01
649.963	0.01
650.294	0.02
650.625	0.01
650.957	0.02
651.288	0.01
651.619	0.01
651.95	0.01
652.281	0.01
652.612	0.02
652.943	0.02
653.274	0.02
653.604	0.01
653.935	0.02
654.266	0.02
654.596	0.02
654.927	0.02
655.258	0.02
655.588	0.01
655.918	0.02
656.249	0.01
656.579	0.01
656.909	0.01
657.24	0.01
657.57	0.01
657.9	0.01
658.23	0.02
658.56	0.01
658.89	0.01
659.22	0.01
659.55	0.01
659.88	0.01
660.209	0.01
660.539	0.01
660.869	0.01
661.198	0.01
661.528	0.01
661.857	0.01
662.187	0.01
662.516	0.01
662.846	0.01
663.175	0.01
663.504	0.01
663.833	0.01
664.163	0.01
664.492	0.01
664.821	0.01
665.15	0.01
665.479	0.01
665.807	0.01
666.136	0.01
666.465	0.01
666.794	0.01
667.122	0.01
667.451	0.01
667.78	0.01
668.108	0.01
668.437	0.01
668.765	0.01
669.093	0.01
669.422	0.01
669.75	0.01
670.078	0
670.406	0
670.734	0
671.062	0.01
671.39	0.01
671.718	0
672.046	0.01
672.374	0.01
672.702	0.01
673.029	0.01
673.357	0.01
673.685	0.01
674.012	0.01
674.34	0.01
674.667	0.01
674.995	0.01
675.322	0.01
675.649	0.01
675.977	0.01
676.304	0.01
676.631	0.01
676.958	0.01
677.285	0.01
677.612	0.01
677.939	0.01
678.266	0.01
678.593	0.01
678.92	0.01
679.246	0.01
679.573	0.01
679.9	0.01
680.226	0.01
680.553	0.01
680.879	0.01
681.206	0.02
681.532	0.02
681.858	0.02
682.184	0.02
682.511	0.02
682.837	0.02
683.163	0.02
683.489	0.01
683.815	0.02
684.141	0.02
684.467	0.01
684.793	0.02
685.118	0.02
685.444	0.01
685.77	0.01
686.095	0.01
686.421	0.01
686.746	0.01
687.072	0.02
687.397	0.01
687.723	0.01
688.048	0.01
688.373	0
688.698	0.01
689.023	0.01
689.349	0.01
689.674	0.01
689.999	0.01
690.323	0.01
690.648	0.01
690.973	0.01
691.298	0.01
691.623	0.01
691.947	0.01
692.272	0.01
692.596	0.02
692.921	0.02
693.245	0.02
693.57	0.02
693.894	0.02
694.218	0.01
694.543	0.02
694.867	0.01
695.191	0.01
695.515	0.01
695.839	0.01
696.163	0.01
696.487	0
696.811	0.01
697.135	0.01
697.458	0
697.782	0.01
698.106	0
698.429	0.01
698.753	0
699.076	-0
699.4	0
699.723	0.01
700.046	0
700.37	0
700.693	0
701.016	0.01
701.339	0.01
701.662	0
701.985	0.01
702.308	0.01
702.631	0
702.954	0.01
703.277	0
703.599	0.01
703.922	0.01
704.245	0.01
704.567	0.01
704.89	0.01
705.212	0.01
705.535	0.01
705.857	0.01
706.179	0.01
706.502	0.01
706.824	0.01
707.146	0.02
707.468	0.02
707.79	0.02
708.112	0.02
708.434	0.02
708.756	0.02
709.078	0.02
709.399	0.02
709.721	0.02
710.043	0.02
710.364	0.02
710.686	0.02
711.007	0.03
711.329	0.01
711.65	0.02
711.972	0.02
712.293	0.02
712.614	0.02
712.935	0.02
713.256	0.02
713.577	0.02
713.898	0.02
714.219	0.02
714.54	0.03
714.861	0.02
715.182	0.02
715.503	0.02
715.823	0.02
716.144	0.02
716.464	0.02
716.785	0.01
717.105	0.02
717.426	0.02
717.746	0.02
718.066	0.02
718.387	0.02
718.707	0.02
719.027	0.02
719.347	0.02
719.667	0.02
719.987	0.02
720.307	0.01
720.627	0.01
720.947	0.02
721.266	0.02
721.586	0.01
721.906	0.01
722.225	0.01
722.545	0.01
722.864	0.01
723.184	0.01
723.503	0.02
723.823	0.01
724.142	0.01
724.461	0.02
724.78	0.01
725.099	0.02
725.418	0.02
725.737	0.01
726.056	0.02
726.375	0.01
726.694	0.01
727.013	0.01
727.331	0.01
727.65	0.01
727.969	0.01
728.287	0.01
728.606	0.02
728.924	0.01
729.242	0.02
729.561	0.01
729.879	0.01
730.197	0.01
730.515	0.01
730.834	0.01
731.152	0.01
731.47	0.01
731.788	0.02
732.105	0.01
732.423	0.02
732.741	0.01
733.059	0.01
733.376	0.01
733.694	0.02
734.012	0.02
734.329	0.02
734.647	0.02
734.964	0.02
735.281	0.02
735.599	0.02
735.916	0.02
736.233	0.02
736.55	0.02
736.867	0.02
737.184	0.03
737.501	0.03
737.818	0.02
738.135	0.03
738.452	0.02
738.768	0.02
739.085	0.01
739.402	0.02
739.718	0.03
740.035	0.02
740.351	0.02
740.668	0.02
740.984	0.02
741.3	0.02
741.617	0.03
741.933	0.03
742.249	0.03
742.565	0.03
742.881	0.03
743.197	0.03
743.513	0.03
743.829	0.02
744.144	0.02
744.46	0.03
744.776	0.03
745.091	0.03
745.407	0.02
745.722	0.04
746.038	0.03
746.353	0.03
746.669	0.03
746.984	0.03
747.299	0.03
747.614	0.03
747.93	0.03
748.245	0.03
748.56	0.03
748.875	0.02
749.189	0.04
749.504	0.03
749.819	0.03
750.134	0.03
750.448	0.03
750.763	0.03
751.078	0.03
751.392	0.03
751.707	0.04
752.021	0.02
752.335	0.04
752.65	0.03
752.964	0.04
753.278	0.04
753.592	0.04
753.906	0.04
754.22	0.04
754.534	0.04
754.848	0.04
755.162	0.04
755.476	0.04
755.789	0.03
756.103	0.03
756.417	0.04
756.73	0.04
757.044	0.04
757.357	0.03
757.671	0.04
757.984	0.04
758.297	0.04
758.61	0.04
758.924	0.04
759.237	0.05
759.55	0.05
759.863	0.04
760.176	0.04
760.488	0.04
760.801	0.05
761.114	0.05
761.427	0.05
761.739	0.05
762.052	0.05
762.365	0.04
762.677	0.05
762.99	0.05
763.302	0.05
763.614	0.04
763.926	0.05
764.239	0.05
764.551	0.05
764.863	0.05
765.175	0.05
765.487	0.05
765.799	0.05
766.111	0.05
766.423	0.05
766.734	0.05
767.046	0.05
767.358	0.04
767.669	0.05
767.981	0.05
768.292	0.05
768.604	0.04
768.915	0.06
769.226	0.04
769.537	0.04
769.849	0.04
770.16	0.04
770.471	0.04
770.782	0.04
771.093	0.04
771.404	0.04
771.715	0.04
772.025	0.04
772.336	0.04
772.647	0.04
772.957	0.05
773.268	0.04
773.578	0.04
773.889	0.04
774.199	0.04
774.51	0.04
774.82	0.04
775.13	0.04
775.44	0.04
775.75	0.04
776.06	0.04
776.37	0.04
776.68	0.04
776.99	0.04
777.3	0.05
777.61	0.04
777.92	0.04
778.229	0.04
778.539	0.05
778.848	0.05
779.158	0.04
779.467	0.04
779.777	0.05
780.086	0.05
780.395	0.05
780.704	0.05
781.013	0.04
781.323	0.05
781.632	0.05
781.941	0.04
782.249	0.05
782.558	0.05
782.867	0.04
783.176	0.04
783.485	0.04
783.793	0.04
784.102	0.04
784.41	0.04
784.719	0.04
785.027	0.04
785.335	0.04
785.644	0.03
785.952	0.04
786.26	0.02
786.568	0.03
786.876	0.03
787.184	0.02
787.492	0.03
787.8	0.03
788.108	0.03
788.416	0.02
788.723	0.03
789.031	0.03
789.338	0.02
789.646	0.02
789.953	0.02
790.261	0.02
790.568	0.03
790.876	0.03
791.183	0.02
791.49	0.02
791.797	0.02
792.104	0.02
792.411	0.02
792.718	0.03
793.025	0.02
793.332	0.02
793.639	0.02
793.945	0.02
794.252	0.03
794.559	0.02
794.865	0.01
795.172	0.03
795.478	0.03
795.784	0.02
796.091	0.03
796.397	0.02
796.703	0.02
797.009	0.02
797.315	0.01
797.622	0.02
797.927	0.02
798.233	0.02
798.539	0.02
798.845	0.02
799.151	0.02
799.456	0.01
799.762	0.02
800.068	0.01
800.373	0.01
800.679	0.01
800.984	0.01
801.289	0.02
801.595	0.01
801.9	0
802.205	0.01
802.51	0.02
802.815	0.02
803.12	0.02
803.425	0.02
803.73	0.01
804.035	0.02
804.339	0.02
804.644	0.02
804.949	0.02
805.253	0.02
805.558	0.02
805.862	0.02
806.167	0.02
806.471	0.03
806.775	0.02
807.08	0.02
807.384	0.02
807.688	0.02
807.992	0.01
808.296	0.02
808.6	0.02
808.904	0.02
809.207	0.01
809.511	0.01
809.815	0.02
810.119	0.02
810.422	0.02
810.726	0.02
811.029	0.02
811.332	0.02
811.636	0.01
811.939	0.02
812.242	0.03
812.546	0.02
812.849	0.02
813.152	0.02
813.455	0.02
813.758	0.03
814.06	0.02
814.363	0.02
814.666	0.03
814.969	0.02
815.271	0.03
815.574	0.03
815.877	0.02
816.179	0.03
816.481	0.03
816.784	0.02
817.086	0.03
817.388	0.03
817.69	0.03
817.993	0.04
818.295	0.03
818.597	0.04
818.899	0.04
819.2	0.05
819.502	0.05
819.804	0.05
820.106	0.04
820.407	0.04
820.709	0.05
821.01	0.05
821.312	0.05
821.613	0.05
821.915	0.05
822.216	0.05
822.517	0.05
822.818	0.04
823.119	0.05
823.42	0.04
823.721	0.04
824.022	0.05
824.323	0.05
824.624	0.04
824.925	0.06
825.226	0.05
825.526	0.05
825.827	0.05
826.127	0.06
826.428	0.05
826.728	0.06
827.028	0.05
827.329	0.05
827.629	0.06
827.929	0.06
828.229	0.06
828.529	0.07
828.829	0.06
829.129	0.06
829.429	0.06
829.729	0.06
830.029	0.06
830.328	0.07
830.628	0.06
830.927	0.07
831.227	0.07
831.526	0.06
831.826	0.07
832.125	0.07
832.424	0.06
832.724	0.06
833.023	0.07
833.322	0.07
833.621	0.07
833.92	0.06
834.219	0.07
834.518	0.07
834.816	0.07
835.115	0.08
835.414	0.08
835.712	0.09
836.011	0.08
836.309	0.08
836.608	0.09
836.906	0.09
837.205	0.09
837.503	0.09
837.801	0.09
838.099	0.09
838.397	0.1
838.695	0.11
838.993	0.1
839.291	0.1
839.589	0.1
839.887	0.11
840.184	0.11
840.482	0.1
840.78	0.11
841.077	0.1
841.375	0.11
841.672	0.11
841.969	0.11
842.267	0.11
842.564	0.11
842.861	0.12
843.158	0.11
843.455	0.11
843.752	0.12
844.049	0.11
844.346	0.11
844.643	0.11
844.94	0.12
845.236	0.11
845.533	0.11
845.83	0.12
846.126	0.12
846.423	0.12
846.719	0.13
847.015	0.13
847.312	0.11
847.608	0.13
847.904	0.12
848.2	0.13
848.496	0.12
848.792	0.12
849.088	0.13
849.384	0.12
849.68	0.13
849.975	0.12
850.271	0.12
850.567	0.12
850.862	0.12
851.158	0.13
851.453	0.13
851.748	0.14
852.044	0.12
852.339	0.14
852.634	0.14
852.929	0.13
853.224	0.13
853.519	0.14
853.814	0.15
854.109	0.15
854.404	0.15
854.699	0.15
854.994	0.15
855.288	0.15
855.583	0.15
855.877	0.15
856.172	0.16
856.466	0.15
856.76	0.16
857.055	0.15
857.349	0.16
857.643	0.17
857.937	0.17
858.231	0.16
858.525	0.15
858.819	0.17
859.113	0.17
859.407	0.17
859.701	0.16
859.994	0.16
860.288	0.17
860.581	0.17
860.875	0.19
861.168	0.18
861.462	0.19
861.755	0.19
862.048	0.19
862.341	0.18
862.634	0.2
862.928	0.19
863.221	0.18
863.513	0.19
863.806	0.2
864.099	0.19
864.392	0.19
864.685	0.2
864.977	0.2
865.27	0.19
865.562	0.21
865.855	0.22
866.147	0.21
866.44	0.2
866.732	0.2
867.024	0.2
867.316	0.2
867.608	0.2
867.9	0.21
868.192	0.2
868.484	0.2
868.776	0.19
869.068	0.2
869.359	0.19
869.651	0.19
869.943	0.19
870.234	0.2
870.526	0.21
870.817	0.21
871.108	0.2
871.4	0.2
871.691	0.21
871.982	0.21
872.273	0.21
872.564	0.19
872.855	0.2
873.146	0.22
873.437	0.22
873.728	0.23
874.019	0.22
874.309	0.21
874.6	0.23
874.89	0.22
875.181	0.2
875.471	0.22
875.762	0.23
876.052	0.23
876.342	0.24
876.632	0.23
876.922	0.24
877.213	0.22
877.503	0.21
877.792	0.22
878.082	0.23
878.372	0.24
878.662	0.25
878.952	0.23
879.241	0.24
879.531	0.24
879.82	0.23
880.11	0.24
880.399	0.22
880.688	0.24
880.978	0.24
881.267	0.24
