Data from 0p005mcharge_n2_Absorbance_00007.txt Node
Date: Mon Nov 28 19:05:55 EST 2022
User: Kiana
Spectrometer: FLMS00943
Trigger mode: 0
Integration Time (sec): 8.630000E-2
Scans to average: 1
Electric dark correction enabled: true
Nonlinearity correction enabled: false
Boxcar width: 0
XAxis mode: Wavelengths
Number of Pixels in Spectrum: 2048
>>>>>Begin Spectral Data<<<<<
179.651	-0
180.037	-0
180.424	-0
180.81	-0
181.197	-0.63
181.583	-0.07
181.97	-0
182.356	-0
182.743	0.77
183.129	-0.34
183.515	0.13
183.901	-0.13
184.288	-0
184.674	-0.99
185.06	0.16
185.446	-0
185.832	0.22
186.218	-0
186.604	1.47
186.99	-0
187.376	-0
187.762	0.42
188.148	-2.08
188.534	-0.13
188.92	-0.01
189.305	-0.03
189.691	-0.01
190.077	-0.04
190.463	-0.04
190.848	-0.03
191.234	-0.11
191.619	-0.02
192.005	-0.03
192.391	-0.07
192.776	0.05
193.161	-0.05
193.547	-0.05
193.932	0.06
194.318	0.07
194.703	0
195.088	0.01
195.473	0.02
195.859	-0.07
196.244	-0.08
196.629	-0.04
197.014	-0.03
197.399	0.06
197.784	0.04
198.169	0.04
198.554	0.06
198.939	0.01
199.324	-0.01
199.709	0.01
200.094	0.01
200.478	0.07
200.863	0.02
201.248	0.05
201.633	0
202.017	0.14
202.402	0.11
202.787	0.11
203.171	0.06
203.556	0.07
203.94	0.07
204.325	0.11
204.709	0.11
205.093	0.15
205.478	0.13
205.862	0.17
206.246	0.08
206.631	0.1
207.015	0.15
207.399	0.13
207.783	0.18
208.167	0.14
208.551	0.16
208.935	0.14
209.319	0.2
209.703	0.2
210.087	0.17
210.471	0.22
210.855	0.15
211.239	0.16
211.623	0.11
212.007	0.18
212.39	0.22
212.774	0.2
213.158	0.18
213.541	0.27
213.925	0.23
214.309	0.27
214.692	0.25
215.076	0.25
215.459	0.25
215.842	0.25
216.226	0.28
216.609	0.27
216.993	0.33
217.376	0.34
217.759	0.36
218.142	0.41
218.525	0.42
218.909	0.46
219.292	0.45
219.675	0.51
220.058	0.53
220.441	0.55
220.824	0.57
221.207	0.55
221.59	0.57
221.973	0.56
222.355	0.54
222.738	0.55
223.121	0.55
223.504	0.55
223.886	0.53
224.269	0.54
224.652	0.52
225.034	0.51
225.417	0.49
225.799	0.47
226.182	0.45
226.564	0.43
226.947	0.41
227.329	0.39
227.711	0.38
228.094	0.35
228.476	0.36
228.858	0.34
229.24	0.31
229.623	0.29
230.005	0.29
230.387	0.28
230.769	0.26
231.151	0.25
231.533	0.25
231.915	0.23
232.297	0.23
232.679	0.23
233.061	0.22
233.442	0.22
233.824	0.22
234.206	0.21
234.588	0.22
234.969	0.22
235.351	0.22
235.733	0.22
236.114	0.23
236.496	0.24
236.877	0.24
237.259	0.25
237.64	0.26
238.022	0.26
238.403	0.27
238.784	0.29
239.165	0.29
239.547	0.3
239.928	0.31
240.309	0.33
240.69	0.35
241.071	0.35
241.452	0.36
241.834	0.38
242.215	0.39
242.595	0.41
242.976	0.43
243.357	0.43
243.738	0.46
244.119	0.48
244.5	0.48
244.881	0.51
245.261	0.52
245.642	0.53
246.023	0.55
246.403	0.58
246.784	0.58
247.164	0.59
247.545	0.61
247.925	0.63
248.306	0.63
248.686	0.66
249.067	0.67
249.447	0.68
249.827	0.68
250.207	0.7
250.588	0.7
250.968	0.7
251.348	0.72
251.728	0.71
252.108	0.71
252.488	0.72
252.868	0.73
253.248	0.74
253.628	0.74
254.008	0.74
254.388	0.74
254.768	0.74
255.147	0.72
255.527	0.73
255.907	0.71
256.287	0.71
256.666	0.7
257.046	0.69
257.425	0.68
257.805	0.66
258.184	0.66
258.564	0.64
258.943	0.62
259.323	0.62
259.702	0.59
260.081	0.57
260.461	0.54
260.84	0.53
261.219	0.51
261.598	0.5
261.977	0.47
262.356	0.46
262.736	0.44
263.115	0.42
263.494	0.41
263.873	0.39
264.251	0.37
264.63	0.35
265.009	0.34
265.388	0.32
265.767	0.31
266.145	0.29
266.524	0.28
266.903	0.27
267.281	0.26
267.66	0.25
268.039	0.23
268.417	0.22
268.796	0.21
269.174	0.2
269.552	0.19
269.931	0.18
270.309	0.17
270.687	0.15
271.066	0.15
271.444	0.14
271.822	0.13
272.2	0.12
272.578	0.11
272.956	0.11
273.334	0.1
273.712	0.09
274.09	0.08
274.468	0.08
274.846	0.06
275.224	0.05
275.602	0.05
275.98	0.04
276.357	0.04
276.735	0.03
277.113	0.03
277.49	0.02
277.868	0.02
278.246	0.01
278.623	0
279.001	0
279.378	-0
279.756	-0.01
280.133	-0.02
280.51	-0.02
280.888	-0.02
281.265	-0.03
281.642	-0.03
282.019	-0.04
282.396	-0.04
282.773	-0.04
283.151	-0.04
283.528	-0.05
283.905	-0.05
284.282	-0.05
284.659	-0.05
285.035	-0.05
285.412	-0.06
285.789	-0.06
286.166	-0.07
286.543	-0.07
286.919	-0.07
287.296	-0.07
287.673	-0.08
288.049	-0.08
288.426	-0.09
288.802	-0.09
289.179	-0.1
289.555	-0.09
289.932	-0.1
290.308	-0.1
290.684	-0.1
291.061	-0.09
291.437	-0.1
291.813	-0.1
292.189	-0.1
292.565	-0.1
292.942	-0.1
293.318	-0.11
293.694	-0.11
294.07	-0.1
294.446	-0.1
294.822	-0.11
295.197	-0.1
295.573	-0.11
295.949	-0.11
296.325	-0.11
296.701	-0.11
297.076	-0.11
297.452	-0.11
297.828	-0.11
298.203	-0.11
298.579	-0.11
298.954	-0.12
299.33	-0.12
299.705	-0.11
300.081	-0.12
300.456	-0.12
300.831	-0.12
301.206	-0.13
301.582	-0.13
301.957	-0.12
302.332	-0.13
302.707	-0.14
303.082	-0.14
303.457	-0.14
303.832	-0.15
304.207	-0.15
304.582	-0.14
304.957	-0.14
305.332	-0.15
305.707	-0.15
306.082	-0.14
306.456	-0.15
306.831	-0.14
307.206	-0.14
307.58	-0.14
307.955	-0.14
308.33	-0.15
308.704	-0.14
309.079	-0.15
309.453	-0.15
309.828	-0.16
310.202	-0.15
310.576	-0.15
310.951	-0.16
311.325	-0.15
311.699	-0.16
312.073	-0.16
312.447	-0.16
312.821	-0.16
313.196	-0.16
313.57	-0.16
313.944	-0.16
314.317	-0.16
314.691	-0.16
315.065	-0.16
315.439	-0.15
315.813	-0.16
316.187	-0.16
316.56	-0.15
316.934	-0.15
317.308	-0.15
317.681	-0.16
318.055	-0.15
318.428	-0.16
318.802	-0.15
319.175	-0.16
319.549	-0.15
319.922	-0.16
320.295	-0.16
320.669	-0.17
321.042	-0.16
321.415	-0.16
321.788	-0.17
322.162	-0.16
322.535	-0.17
322.908	-0.17
323.281	-0.17
323.654	-0.16
324.027	-0.16
324.4	-0.17
324.773	-0.17
325.145	-0.17
325.518	-0.17
325.891	-0.17
326.264	-0.17
326.636	-0.17
327.009	-0.16
327.382	-0.17
327.754	-0.17
328.127	-0.17
328.499	-0.17
328.872	-0.17
329.244	-0.17
329.616	-0.16
329.989	-0.16
330.361	-0.16
330.733	-0.15
331.106	-0.15
331.478	-0.16
331.85	-0.16
332.222	-0.16
332.594	-0.16
332.966	-0.16
333.338	-0.16
333.71	-0.16
334.082	-0.16
334.454	-0.16
334.826	-0.15
335.197	-0.16
335.569	-0.15
335.941	-0.16
336.312	-0.15
336.684	-0.15
337.056	-0.15
337.427	-0.15
337.799	-0.16
338.17	-0.15
338.542	-0.15
338.913	-0.15
339.284	-0.15
339.656	-0.15
340.027	-0.15
340.398	-0.15
340.769	-0.15
341.141	-0.14
341.512	-0.15
341.883	-0.14
342.254	-0.15
342.625	-0.15
342.996	-0.15
343.367	-0.14
343.738	-0.14
344.108	-0.14
344.479	-0.14
344.85	-0.14
345.221	-0.14
345.591	-0.14
345.962	-0.13
346.333	-0.14
346.703	-0.14
347.074	-0.14
347.444	-0.14
347.815	-0.13
348.185	-0.14
348.556	-0.14
348.926	-0.14
349.296	-0.13
349.666	-0.13
350.037	-0.13
350.407	-0.12
350.777	-0.12
351.147	-0.12
351.517	-0.12
351.887	-0.12
352.257	-0.12
352.627	-0.11
352.997	-0.11
353.367	-0.11
353.737	-0.11
354.106	-0.11
354.476	-0.11
354.846	-0.11
355.216	-0.11
355.585	-0.1
355.955	-0.11
356.324	-0.1
356.694	-0.1
357.063	-0.1
357.433	-0.1
357.802	-0.09
358.171	-0.08
358.541	-0.08
358.91	-0.09
359.279	-0.09
359.648	-0.08
360.017	-0.08
360.387	-0.08
360.756	-0.08
361.125	-0.08
361.494	-0.07
361.863	-0.07
362.231	-0.07
362.6	-0.08
362.969	-0.07
363.338	-0.06
363.707	-0.06
364.075	-0.06
364.444	-0.06
364.813	-0.06
365.181	-0.05
365.55	-0.05
365.918	-0.06
366.287	-0.04
366.655	-0.05
367.024	-0.05
367.392	-0.04
367.76	-0.04
368.128	-0.04
368.497	-0.03
368.865	-0.04
369.233	-0.03
369.601	-0.04
369.969	-0.03
370.337	-0.03
370.705	-0.03
371.073	-0.03
371.441	-0.02
371.809	-0.02
372.177	-0.02
372.544	-0.02
372.912	-0.02
373.28	-0.01
373.647	-0.01
374.015	-0.02
374.383	-0.01
374.75	-0
375.118	-0
375.485	-0.01
375.853	0
376.22	-0
376.587	0
376.955	0
377.322	0.01
377.689	-0
378.056	-0
378.423	0
378.79	0
379.157	0
379.524	0
379.891	0.01
380.258	0.02
380.625	0.02
380.992	0.02
381.359	0.01
381.726	0.02
382.092	0.02
382.459	0.02
382.826	0.03
383.192	0.02
383.559	0.03
383.925	0.04
384.292	0.03
384.658	0.04
385.025	0.03
385.391	0.04
385.757	0.05
386.123	0.04
386.49	0.04
386.856	0.05
387.222	0.05
387.588	0.05
387.954	0.06
388.32	0.05
388.686	0.05
389.052	0.06
389.418	0.06
389.784	0.06
390.15	0.06
390.515	0.05
390.881	0.06
391.247	0.06
391.613	0.05
391.978	0.06
392.344	0.06
392.709	0.05
393.075	0.06
393.44	0.07
393.806	0.06
394.171	0.05
394.536	0.05
394.902	0.04
395.267	0.04
395.632	0.05
395.997	0.04
396.362	0.04
396.727	0.04
397.092	0.03
397.457	0.03
397.822	0.03
398.187	0.04
398.552	0.04
398.917	0.03
399.282	0.02
399.646	0.03
400.011	0.03
400.376	0.03
400.74	0.02
401.105	0.02
401.47	0.02
401.834	0.02
402.199	0
402.563	0.01
402.927	0.01
403.292	-0
403.656	0
404.02	-0
404.384	0
404.749	0
405.113	0
405.477	0.01
405.841	-0
406.205	-0.02
406.569	-0
406.933	0
407.296	-0
407.66	-0.01
408.024	-0.01
408.388	-0.01
408.752	-0.02
409.115	-0.01
409.479	-0.02
409.842	-0.02
410.206	-0.01
410.569	-0.02
410.933	-0.02
411.296	-0.02
411.66	-0.03
412.023	-0.02
412.386	-0.02
412.749	-0.03
413.113	-0.03
413.476	-0.01
413.839	-0.04
414.202	-0.03
414.565	-0.04
414.928	-0.03
415.291	-0.04
415.654	-0.04
416.017	-0.04
416.38	-0.05
416.742	-0.05
417.105	-0.05
417.468	-0.05
417.83	-0.05
418.193	-0.05
418.556	-0.05
418.918	-0.06
419.281	-0.06
419.643	-0.06
420.005	-0.06
420.368	-0.06
420.73	-0.07
421.092	-0.07
421.455	-0.07
421.817	-0.08
422.179	-0.07
422.541	-0.07
422.903	-0.07
423.265	-0.08
423.627	-0.07
423.989	-0.08
424.351	-0.08
424.713	-0.08
425.075	-0.08
425.436	-0.08
425.798	-0.08
426.16	-0.09
426.521	-0.09
426.883	-0.09
427.245	-0.1
427.606	-0.08
427.967	-0.09
428.329	-0.09
428.69	-0.09
429.052	-0.09
429.413	-0.1
429.774	-0.09
430.135	-0.09
430.497	-0.09
430.858	-0.09
431.219	-0.09
431.58	-0.09
431.941	-0.1
432.302	-0.1
432.663	-0.1
433.024	-0.1
433.384	-0.1
433.745	-0.11
434.106	-0.1
434.467	-0.1
434.827	-0.11
435.188	-0.1
435.548	-0.12
435.909	-0.11
436.269	-0.11
436.63	-0.12
436.99	-0.12
437.351	-0.12
437.711	-0.12
438.071	-0.12
438.431	-0.13
438.792	-0.12
439.152	-0.12
439.512	-0.12
439.872	-0.12
440.232	-0.13
440.592	-0.13
440.952	-0.14
441.312	-0.14
441.671	-0.14
442.031	-0.14
442.391	-0.14
442.751	-0.16
443.11	-0.15
443.47	-0.15
443.83	-0.15
444.189	-0.14
444.549	-0.15
444.908	-0.16
445.267	-0.15
445.627	-0.16
445.986	-0.17
446.345	-0.16
446.705	-0.16
447.064	-0.17
447.423	-0.17
447.782	-0.17
448.141	-0.16
448.5	-0.17
448.859	-0.16
449.218	-0.17
449.577	-0.17
449.936	-0.17
450.295	-0.18
450.653	-0.18
451.012	-0.17
451.371	-0.17
451.729	-0.18
452.088	-0.18
452.447	-0.18
452.805	-0.19
453.163	-0.19
453.522	-0.19
453.88	-0.19
454.239	-0.19
454.597	-0.18
454.955	-0.19
455.313	-0.2
455.671	-0.2
456.029	-0.19
456.388	-0.2
456.746	-0.2
457.104	-0.2
457.461	-0.2
457.819	-0.2
458.177	-0.2
458.535	-0.2
458.893	-0.2
459.25	-0.21
459.608	-0.2
459.966	-0.2
460.323	-0.2
460.681	-0.2
461.038	-0.2
461.396	-0.2
461.753	-0.21
462.111	-0.2
462.468	-0.2
462.825	-0.2
463.182	-0.2
463.54	-0.21
463.897	-0.21
464.254	-0.2
464.611	-0.2
464.968	-0.21
465.325	-0.21
465.682	-0.2
466.039	-0.21
466.395	-0.21
466.752	-0.21
467.109	-0.21
467.466	-0.21
467.822	-0.21
468.179	-0.21
468.535	-0.2
468.892	-0.22
469.248	-0.21
469.605	-0.21
469.961	-0.21
470.318	-0.21
470.674	-0.21
471.03	-0.21
471.386	-0.21
471.743	-0.21
472.099	-0.21
472.455	-0.21
472.811	-0.21
473.167	-0.21
473.523	-0.21
473.879	-0.21
474.235	-0.21
474.59	-0.21
474.946	-0.21
475.302	-0.2
475.657	-0.21
476.013	-0.2
476.369	-0.21
476.724	-0.2
477.08	-0.2
477.435	-0.2
477.791	-0.2
478.146	-0.19
478.501	-0.2
478.857	-0.19
479.212	-0.18
479.567	-0.18
479.922	-0.18
480.277	-0.18
480.632	-0.18
480.987	-0.17
481.342	-0.18
481.697	-0.17
482.052	-0.17
482.407	-0.17
482.762	-0.17
483.116	-0.16
483.471	-0.16
483.826	-0.16
484.18	-0.16
484.535	-0.16
484.89	-0.15
485.244	-0.15
485.598	-0.15
485.953	-0.15
486.307	-0.15
486.661	-0.15
487.016	-0.15
487.37	-0.15
487.724	-0.15
488.078	-0.15
488.432	-0.15
488.786	-0.15
489.14	-0.14
489.494	-0.14
489.848	-0.14
490.202	-0.15
490.556	-0.14
490.91	-0.14
491.263	-0.15
491.617	-0.15
491.971	-0.15
492.324	-0.15
492.678	-0.15
493.031	-0.15
493.385	-0.15
493.738	-0.16
494.091	-0.15
494.445	-0.15
494.798	-0.15
495.151	-0.16
495.504	-0.16
495.857	-0.16
496.21	-0.16
496.564	-0.16
496.916	-0.16
497.269	-0.16
497.622	-0.17
497.975	-0.17
498.328	-0.17
498.681	-0.18
499.033	-0.18
499.386	-0.18
499.739	-0.19
500.091	-0.19
500.444	-0.18
500.796	-0.19
501.149	-0.19
501.501	-0.19
501.854	-0.2
502.206	-0.2
502.558	-0.21
502.91	-0.21
503.263	-0.2
503.615	-0.2
503.967	-0.2
504.319	-0.2
504.671	-0.21
505.023	-0.21
505.375	-0.2
505.726	-0.21
506.078	-0.21
506.43	-0.21
506.782	-0.21
507.133	-0.21
507.485	-0.21
507.837	-0.21
508.188	-0.21
508.54	-0.21
508.891	-0.21
509.243	-0.21
509.594	-0.21
509.945	-0.21
510.296	-0.21
510.648	-0.21
510.999	-0.21
511.35	-0.22
511.701	-0.22
512.052	-0.21
512.403	-0.21
512.754	-0.22
513.105	-0.21
513.456	-0.21
513.807	-0.22
514.157	-0.22
514.508	-0.21
514.859	-0.22
515.209	-0.22
515.56	-0.21
515.91	-0.22
516.261	-0.22
516.611	-0.21
516.962	-0.21
517.312	-0.22
517.662	-0.21
518.013	-0.21
518.363	-0.21
518.713	-0.21
519.063	-0.2
519.413	-0.2
519.763	-0.2
520.113	-0.2
520.463	-0.2
520.813	-0.2
521.163	-0.19
521.512	-0.19
521.862	-0.19
522.212	-0.19
522.562	-0.19
522.911	-0.19
523.261	-0.19
523.61	-0.18
523.96	-0.18
524.309	-0.19
524.658	-0.19
525.008	-0.18
525.357	-0.19
525.706	-0.19
526.056	-0.18
526.405	-0.19
526.754	-0.18
527.103	-0.19
527.452	-0.19
527.801	-0.19
528.15	-0.19
528.499	-0.19
528.847	-0.19
529.196	-0.18
529.545	-0.19
529.893	-0.19
530.242	-0.19
530.591	-0.19
530.939	-0.2
531.288	-0.19
531.636	-0.2
531.985	-0.2
532.333	-0.2
532.681	-0.21
533.029	-0.22
533.378	-0.21
533.726	-0.2
534.074	-0.21
534.422	-0.21
534.77	-0.21
535.118	-0.22
535.466	-0.21
535.814	-0.21
536.162	-0.22
536.509	-0.21
536.857	-0.22
537.205	-0.22
537.552	-0.21
537.9	-0.21
538.248	-0.22
538.595	-0.22
538.943	-0.21
539.29	-0.21
539.637	-0.22
539.985	-0.22
540.332	-0.22
540.679	-0.21
541.026	-0.22
541.373	-0.21
541.721	-0.22
542.068	-0.21
542.415	-0.21
542.762	-0.22
543.108	-0.21
543.455	-0.21
543.802	-0.21
544.149	-0.21
544.496	-0.22
544.842	-0.21
545.189	-0.21
545.535	-0.21
545.882	-0.21
546.228	-0.21
546.575	-0.21
546.921	-0.22
547.267	-0.21
547.614	-0.21
547.96	-0.21
548.306	-0.21
548.652	-0.21
548.998	-0.21
549.344	-0.21
549.69	-0.21
550.036	-0.21
550.382	-0.21
550.728	-0.21
551.074	-0.21
551.42	-0.22
551.765	-0.22
552.111	-0.21
552.457	-0.21
552.802	-0.22
553.148	-0.21
553.493	-0.21
553.839	-0.21
554.184	-0.22
554.529	-0.21
554.875	-0.21
555.22	-0.21
555.565	-0.22
555.91	-0.22
556.255	-0.21
556.6	-0.21
556.945	-0.22
557.29	-0.21
557.635	-0.21
557.98	-0.21
558.325	-0.21
558.67	-0.22
559.014	-0.21
559.359	-0.22
559.704	-0.21
560.048	-0.22
560.393	-0.21
560.737	-0.22
561.082	-0.22
561.426	-0.21
561.77	-0.22
562.115	-0.21
562.459	-0.22
562.803	-0.21
563.147	-0.22
563.491	-0.23
563.835	-0.22
564.179	-0.22
564.523	-0.22
564.867	-0.21
565.211	-0.22
565.555	-0.21
565.899	-0.21
566.242	-0.22
566.586	-0.21
566.93	-0.22
567.273	-0.21
567.617	-0.22
567.96	-0.22
568.304	-0.22
568.647	-0.22
568.99	-0.21
569.334	-0.22
569.677	-0.22
570.02	-0.21
570.363	-0.21
570.706	-0.21
571.049	-0.22
571.392	-0.22
571.735	-0.22
572.078	-0.22
572.421	-0.22
572.764	-0.21
573.106	-0.21
573.449	-0.21
573.792	-0.21
574.134	-0.22
574.477	-0.22
574.819	-0.22
575.162	-0.22
575.504	-0.21
575.847	-0.22
576.189	-0.22
576.531	-0.22
576.873	-0.22
577.215	-0.22
577.558	-0.22
577.9	-0.22
578.242	-0.23
578.584	-0.22
578.926	-0.22
579.267	-0.22
579.609	-0.22
579.951	-0.22
580.293	-0.22
580.634	-0.22
580.976	-0.22
581.318	-0.22
581.659	-0.22
582.001	-0.22
582.342	-0.22
582.683	-0.22
583.025	-0.23
583.366	-0.22
583.707	-0.22
584.049	-0.21
584.39	-0.22
584.731	-0.21
585.072	-0.21
585.413	-0.21
585.754	-0.21
586.095	-0.21
586.435	-0.2
586.776	-0.21
587.117	-0.21
587.458	-0.21
587.798	-0.21
588.139	-0.21
588.48	-0.21
588.82	-0.21
589.161	-0.22
589.501	-0.22
589.841	-0.22
590.182	-0.22
590.522	-0.22
590.862	-0.21
591.202	-0.22
591.542	-0.21
591.882	-0.22
592.222	-0.22
592.562	-0.22
592.902	-0.22
593.242	-0.22
593.582	-0.22
593.922	-0.22
594.261	-0.22
594.601	-0.22
594.941	-0.22
595.28	-0.22
595.62	-0.22
595.959	-0.23
596.299	-0.22
596.638	-0.22
596.977	-0.22
597.317	-0.22
597.656	-0.22
597.995	-0.22
598.334	-0.22
598.673	-0.22
599.012	-0.22
599.351	-0.22
599.69	-0.21
600.029	-0.22
600.368	-0.22
600.707	-0.22
601.046	-0.22
601.384	-0.22
601.723	-0.22
602.061	-0.22
602.4	-0.22
602.738	-0.21
603.077	-0.22
603.415	-0.22
603.754	-0.21
604.092	-0.22
604.43	-0.21
604.768	-0.21
605.107	-0.21
605.445	-0.21
605.783	-0.22
606.121	-0.2
606.459	-0.22
606.796	-0.21
607.134	-0.21
607.472	-0.21
607.81	-0.21
608.148	-0.21
608.485	-0.21
608.823	-0.21
609.16	-0.21
609.498	-0.21
609.835	-0.21
610.173	-0.21
610.51	-0.21
610.847	-0.21
611.185	-0.21
611.522	-0.21
611.859	-0.21
612.196	-0.21
612.533	-0.21
612.87	-0.22
613.207	-0.22
613.544	-0.2
613.881	-0.21
614.217	-0.21
614.554	-0.21
614.891	-0.21
615.228	-0.22
615.564	-0.21
615.901	-0.21
616.237	-0.21
616.574	-0.22
616.91	-0.22
617.246	-0.22
617.583	-0.22
617.919	-0.22
618.255	-0.22
618.591	-0.21
618.927	-0.22
619.263	-0.22
619.599	-0.22
619.935	-0.22
620.271	-0.22
620.607	-0.22
620.943	-0.22
621.279	-0.22
621.614	-0.22
621.95	-0.21
622.286	-0.23
622.621	-0.22
622.957	-0.22
623.292	-0.22
623.627	-0.22
623.963	-0.22
624.298	-0.22
624.633	-0.22
624.968	-0.22
625.304	-0.22
625.639	-0.22
625.974	-0.21
626.309	-0.21
626.644	-0.22
626.979	-0.22
627.313	-0.21
627.648	-0.21
627.983	-0.21
628.318	-0.21
628.652	-0.21
628.987	-0.21
629.321	-0.21
629.656	-0.21
629.99	-0.2
630.325	-0.2
630.659	-0.2
630.993	-0.2
631.327	-0.2
631.662	-0.2
631.996	-0.2
632.33	-0.21
632.664	-0.2
632.998	-0.21
633.332	-0.21
633.666	-0.21
633.999	-0.2
634.333	-0.2
634.667	-0.21
635.001	-0.21
635.334	-0.21
635.668	-0.21
636.001	-0.21
636.335	-0.21
636.668	-0.21
637.001	-0.21
637.335	-0.22
637.668	-0.21
638.001	-0.22
638.334	-0.21
638.668	-0.22
639.001	-0.22
639.334	-0.22
639.667	-0.22
639.999	-0.23
640.332	-0.22
640.665	-0.22
640.998	-0.23
641.331	-0.22
641.663	-0.22
641.996	-0.22
642.328	-0.22
642.661	-0.23
642.993	-0.23
643.326	-0.22
643.658	-0.22
643.99	-0.22
644.323	-0.22
644.655	-0.22
644.987	-0.22
645.319	-0.22
645.651	-0.22
645.983	-0.22
646.315	-0.22
646.647	-0.22
646.979	-0.22
647.31	-0.22
647.642	-0.23
647.974	-0.22
648.305	-0.22
648.637	-0.22
648.968	-0.22
649.3	-0.22
649.631	-0.22
649.963	-0.22
650.294	-0.22
650.625	-0.22
650.957	-0.22
651.288	-0.21
651.619	-0.21
651.95	-0.22
652.281	-0.21
652.612	-0.22
652.943	-0.21
653.274	-0.21
653.604	-0.22
653.935	-0.22
654.266	-0.22
654.596	-0.21
654.927	-0.22
655.258	-0.22
655.588	-0.22
655.918	-0.21
656.249	-0.21
656.579	-0.22
656.909	-0.22
657.24	-0.22
657.57	-0.22
657.9	-0.23
658.23	-0.22
658.56	-0.22
658.89	-0.23
659.22	-0.22
659.55	-0.22
659.88	-0.22
660.209	-0.23
660.539	-0.22
660.869	-0.22
661.198	-0.23
661.528	-0.22
661.857	-0.22
662.187	-0.22
662.516	-0.22
662.846	-0.22
663.175	-0.23
663.504	-0.23
663.833	-0.23
664.163	-0.23
664.492	-0.23
664.821	-0.23
665.15	-0.23
665.479	-0.23
665.807	-0.23
666.136	-0.23
666.465	-0.24
666.794	-0.23
667.122	-0.23
667.451	-0.23
667.78	-0.24
668.108	-0.24
668.437	-0.24
668.765	-0.24
669.093	-0.24
669.422	-0.24
669.75	-0.24
670.078	-0.24
670.406	-0.24
670.734	-0.24
671.062	-0.24
671.39	-0.23
671.718	-0.23
672.046	-0.23
672.374	-0.23
672.702	-0.23
673.029	-0.23
673.357	-0.23
673.685	-0.23
674.012	-0.23
674.34	-0.24
674.667	-0.24
674.995	-0.23
675.322	-0.23
675.649	-0.23
675.977	-0.23
676.304	-0.23
676.631	-0.23
676.958	-0.23
677.285	-0.23
677.612	-0.23
677.939	-0.23
678.266	-0.23
678.593	-0.23
678.92	-0.23
679.246	-0.23
679.573	-0.23
679.9	-0.23
680.226	-0.24
680.553	-0.23
680.879	-0.23
681.206	-0.23
681.532	-0.23
681.858	-0.23
682.184	-0.22
682.511	-0.23
682.837	-0.23
683.163	-0.23
683.489	-0.23
683.815	-0.23
684.141	-0.24
684.467	-0.23
684.793	-0.23
685.118	-0.23
685.444	-0.23
685.77	-0.23
686.095	-0.23
686.421	-0.24
686.746	-0.24
687.072	-0.24
687.397	-0.23
687.723	-0.23
688.048	-0.23
688.373	-0.23
688.698	-0.24
689.023	-0.24
689.349	-0.23
689.674	-0.24
689.999	-0.24
690.323	-0.24
690.648	-0.24
690.973	-0.24
691.298	-0.23
691.623	-0.24
691.947	-0.23
692.272	-0.23
692.596	-0.23
692.921	-0.24
693.245	-0.24
693.57	-0.23
693.894	-0.24
694.218	-0.23
694.543	-0.24
694.867	-0.24
695.191	-0.24
695.515	-0.24
695.839	-0.24
696.163	-0.24
696.487	-0.25
696.811	-0.25
697.135	-0.25
697.458	-0.25
697.782	-0.25
698.106	-0.25
698.429	-0.25
698.753	-0.24
699.076	-0.24
699.4	-0.24
699.723	-0.25
700.046	-0.25
700.37	-0.25
700.693	-0.24
701.016	-0.24
701.339	-0.24
701.662	-0.25
701.985	-0.25
702.308	-0.24
702.631	-0.25
702.954	-0.24
703.277	-0.25
703.599	-0.25
703.922	-0.25
704.245	-0.24
704.567	-0.25
704.89	-0.24
705.212	-0.24
705.535	-0.24
705.857	-0.24
706.179	-0.25
706.502	-0.24
706.824	-0.25
707.146	-0.25
707.468	-0.24
707.79	-0.24
708.112	-0.24
708.434	-0.24
708.756	-0.24
709.078	-0.25
709.399	-0.25
709.721	-0.25
710.043	-0.25
710.364	-0.24
710.686	-0.25
711.007	-0.25
711.329	-0.24
711.65	-0.24
711.972	-0.24
712.293	-0.25
712.614	-0.25
712.935	-0.25
713.256	-0.25
713.577	-0.25
713.898	-0.25
714.219	-0.25
714.54	-0.24
714.861	-0.24
715.182	-0.24
715.503	-0.25
715.823	-0.25
716.144	-0.24
716.464	-0.24
716.785	-0.25
717.105	-0.24
717.426	-0.24
717.746	-0.24
718.066	-0.24
718.387	-0.24
718.707	-0.24
719.027	-0.24
719.347	-0.24
719.667	-0.25
719.987	-0.24
720.307	-0.25
720.627	-0.25
720.947	-0.24
721.266	-0.24
721.586	-0.24
721.906	-0.24
722.225	-0.24
722.545	-0.24
722.864	-0.25
723.184	-0.23
723.503	-0.24
723.823	-0.24
724.142	-0.25
724.461	-0.23
724.78	-0.24
725.099	-0.24
725.418	-0.24
725.737	-0.24
726.056	-0.24
726.375	-0.23
726.694	-0.24
727.013	-0.25
727.331	-0.24
727.65	-0.25
727.969	-0.24
728.287	-0.25
728.606	-0.24
728.924	-0.24
729.242	-0.24
729.561	-0.25
729.879	-0.25
730.197	-0.25
730.515	-0.25
730.834	-0.24
731.152	-0.25
731.47	-0.25
731.788	-0.25
732.105	-0.24
732.423	-0.25
732.741	-0.26
733.059	-0.25
733.376	-0.25
733.694	-0.25
734.012	-0.25
734.329	-0.26
734.647	-0.25
734.964	-0.25
735.281	-0.25
735.599	-0.26
735.916	-0.25
736.233	-0.26
736.55	-0.26
736.867	-0.25
737.184	-0.26
737.501	-0.25
737.818	-0.25
738.135	-0.25
738.452	-0.26
738.768	-0.25
739.085	-0.26
739.402	-0.27
739.718	-0.26
740.035	-0.26
740.351	-0.26
740.668	-0.26
740.984	-0.26
741.3	-0.25
741.617	-0.27
741.933	-0.26
742.249	-0.26
742.565	-0.26
742.881	-0.27
743.197	-0.25
743.513	-0.26
743.829	-0.26
744.144	-0.26
744.46	-0.26
744.776	-0.27
745.091	-0.26
745.407	-0.26
745.722	-0.27
746.038	-0.27
746.353	-0.26
746.669	-0.26
746.984	-0.26
747.299	-0.26
747.614	-0.26
747.93	-0.26
748.245	-0.27
748.56	-0.27
748.875	-0.26
749.189	-0.26
749.504	-0.26
749.819	-0.27
750.134	-0.26
750.448	-0.26
750.763	-0.26
751.078	-0.26
751.392	-0.27
751.707	-0.26
752.021	-0.26
752.335	-0.27
752.65	-0.26
752.964	-0.26
753.278	-0.27
753.592	-0.26
753.906	-0.26
754.22	-0.26
754.534	-0.26
754.848	-0.26
755.162	-0.25
755.476	-0.26
755.789	-0.26
756.103	-0.26
756.417	-0.26
756.73	-0.26
757.044	-0.26
757.357	-0.26
757.671	-0.26
757.984	-0.26
758.297	-0.25
758.61	-0.25
758.924	-0.26
759.237	-0.26
759.55	-0.26
759.863	-0.25
760.176	-0.25
760.488	-0.26
760.801	-0.25
761.114	-0.25
761.427	-0.26
761.739	-0.26
762.052	-0.26
762.365	-0.26
762.677	-0.27
762.99	-0.25
763.302	-0.26
763.614	-0.26
763.926	-0.25
764.239	-0.26
764.551	-0.26
764.863	-0.26
765.175	-0.26
765.487	-0.26
765.799	-0.26
766.111	-0.26
766.423	-0.26
766.734	-0.26
767.046	-0.25
767.358	-0.25
767.669	-0.26
767.981	-0.26
768.292	-0.26
768.604	-0.26
768.915	-0.25
769.226	-0.26
769.537	-0.26
769.849	-0.26
770.16	-0.26
770.471	-0.26
770.782	-0.26
771.093	-0.26
771.404	-0.26
771.715	-0.26
772.025	-0.25
772.336	-0.26
772.647	-0.25
772.957	-0.25
773.268	-0.25
773.578	-0.25
773.889	-0.25
774.199	-0.25
774.51	-0.25
774.82	-0.25
775.13	-0.25
775.44	-0.24
775.75	-0.25
776.06	-0.25
776.37	-0.25
776.68	-0.24
776.99	-0.25
777.3	-0.25
777.61	-0.25
777.92	-0.25
778.229	-0.24
778.539	-0.24
778.848	-0.25
779.158	-0.26
779.467	-0.25
779.777	-0.24
780.086	-0.25
780.395	-0.25
780.704	-0.24
781.013	-0.26
781.323	-0.25
781.632	-0.24
781.941	-0.26
782.249	-0.25
782.558	-0.24
782.867	-0.25
783.176	-0.25
783.485	-0.25
783.793	-0.25
784.102	-0.26
784.41	-0.24
784.719	-0.26
785.027	-0.24
785.335	-0.25
785.644	-0.24
785.952	-0.24
786.26	-0.24
786.568	-0.23
786.876	-0.25
787.184	-0.25
787.492	-0.25
787.8	-0.24
788.108	-0.24
788.416	-0.24
788.723	-0.24
789.031	-0.25
789.338	-0.24
789.646	-0.24
789.953	-0.23
790.261	-0.24
790.568	-0.24
790.876	-0.25
791.183	-0.24
791.49	-0.24
791.797	-0.24
792.104	-0.24
792.411	-0.24
792.718	-0.24
793.025	-0.23
793.332	-0.24
793.639	-0.22
793.945	-0.23
794.252	-0.23
794.559	-0.23
794.865	-0.22
795.172	-0.23
795.478	-0.24
795.784	-0.22
796.091	-0.23
796.397	-0.22
796.703	-0.22
797.009	-0.21
797.315	-0.22
797.622	-0.22
797.927	-0.23
798.233	-0.21
798.539	-0.21
798.845	-0.21
799.151	-0.21
799.456	-0.21
799.762	-0.22
800.068	-0.21
800.373	-0.21
800.679	-0.21
800.984	-0.2
801.289	-0.21
801.595	-0.21
801.9	-0.2
802.205	-0.21
802.51	-0.2
802.815	-0.2
803.12	-0.2
803.425	-0.19
803.73	-0.18
804.035	-0.19
804.339	-0.19
804.644	-0.19
804.949	-0.18
805.253	-0.18
805.558	-0.19
805.862	-0.18
806.167	-0.19
806.471	-0.18
806.775	-0.17
807.08	-0.18
807.384	-0.18
807.688	-0.18
807.992	-0.18
808.296	-0.17
808.6	-0.18
808.904	-0.17
809.207	-0.16
809.511	-0.17
809.815	-0.17
810.119	-0.17
810.422	-0.17
810.726	-0.17
811.029	-0.16
811.332	-0.16
811.636	-0.17
811.939	-0.15
812.242	-0.15
812.546	-0.16
812.849	-0.16
813.152	-0.16
813.455	-0.16
813.758	-0.15
814.06	-0.16
814.363	-0.16
814.666	-0.15
814.969	-0.15
815.271	-0.16
815.574	-0.16
815.877	-0.16
816.179	-0.15
816.481	-0.16
816.784	-0.15
817.086	-0.14
817.388	-0.14
817.69	-0.16
817.993	-0.14
818.295	-0.15
818.597	-0.14
818.899	-0.15
819.2	-0.15
819.502	-0.15
819.804	-0.14
820.106	-0.15
820.407	-0.14
820.709	-0.15
821.01	-0.14
821.312	-0.14
821.613	-0.14
821.915	-0.15
822.216	-0.16
822.517	-0.14
822.818	-0.14
823.119	-0.14
823.42	-0.14
823.721	-0.14
824.022	-0.15
824.323	-0.15
824.624	-0.14
824.925	-0.14
825.226	-0.15
825.526	-0.15
825.827	-0.14
826.127	-0.14
826.428	-0.14
826.728	-0.14
827.028	-0.14
827.329	-0.13
827.629	-0.13
827.929	-0.14
828.229	-0.12
828.529	-0.13
828.829	-0.14
829.129	-0.13
829.429	-0.13
829.729	-0.12
830.029	-0.13
830.328	-0.12
830.628	-0.12
830.927	-0.11
831.227	-0.11
831.526	-0.11
831.826	-0.12
832.125	-0.11
832.424	-0.11
832.724	-0.11
833.023	-0.11
833.322	-0.11
833.621	-0.12
833.92	-0.11
834.219	-0.1
834.518	-0.11
834.816	-0.1
835.115	-0.1
835.414	-0.09
835.712	-0.1
836.011	-0.1
836.309	-0.09
836.608	-0.08
836.906	-0.08
837.205	-0.08
837.503	-0.08
837.801	-0.08
838.099	-0.08
838.397	-0.09
838.695	-0.08
838.993	-0.07
839.291	-0.07
839.589	-0.07
839.887	-0.07
840.184	-0.05
840.482	-0.06
840.78	-0.06
841.077	-0.06
841.375	-0.05
841.672	-0.07
841.969	-0.05
842.267	-0.05
842.564	-0.05
842.861	-0.05
843.158	-0.03
843.455	-0.03
843.752	-0.04
844.049	-0.03
844.346	-0.04
844.643	-0.03
844.94	-0.02
845.236	-0.03
845.533	-0.02
845.83	-0.02
846.126	-0.03
846.423	-0.03
846.719	-0.02
847.015	-0
847.312	-0.01
847.608	-0.02
847.904	-0.01
848.2	-0
848.496	0.01
848.792	-0.01
849.088	-0
849.384	0.01
849.68	0.01
849.975	0.02
850.271	0.02
850.567	0.01
850.862	0.02
851.158	0.02
851.453	0.02
851.748	0.02
852.044	0.01
852.339	0.02
852.634	0.03
852.929	0.03
853.224	0.03
853.519	0.03
853.814	0.03
854.109	0.03
854.404	0.04
854.699	0.03
854.994	0.04
855.288	0.04
855.583	0.04
855.877	0.03
856.172	0.03
856.466	0.03
856.76	0.04
857.055	0.03
857.349	0.05
857.643	0.04
857.937	0.05
858.231	0.04
858.525	0.04
858.819	0.05
859.113	0.05
859.407	0.05
859.701	0.06
859.994	0.05
860.288	0.05
860.581	0.06
860.875	0.06
861.168	0.06
861.462	0.07
861.755	0.06
862.048	0.07
862.341	0.08
862.634	0.09
862.928	0.08
863.221	0.07
863.513	0.07
863.806	0.08
864.099	0.1
864.392	0.11
864.685	0.09
864.977	0.12
865.27	0.12
865.562	0.12
865.855	0.15
866.147	0.11
866.44	0.12
866.732	0.13
867.024	0.12
867.316	0.13
867.608	0.14
867.9	0.13
868.192	0.13
868.484	0.14
868.776	0.14
869.068	0.14
869.359	0.12
869.651	0.15
869.943	0.14
870.234	0.14
870.526	0.14
870.817	0.15
871.108	0.15
871.4	0.15
871.691	0.13
871.982	0.16
872.273	0.15
872.564	0.15
872.855	0.15
873.146	0.15
873.437	0.15
873.728	0.16
874.019	0.15
874.309	0.16
874.6	0.17
874.89	0.16
875.181	0.17
875.471	0.16
875.762	0.18
876.052	0.15
876.342	0.18
876.632	0.18
876.922	0.2
877.213	0.19
877.503	0.16
877.792	0.19
878.082	0.18
878.372	0.17
878.662	0.2
878.952	0.2
879.241	0.19
879.531	0.21
879.82	0.2
880.11	0.18
880.399	0.2
880.688	0.21
880.978	0.21
881.267	0.21
